Time (s),Linear Acceleration x (m/s^2),Linear Acceleration y (m/s^2),Linear Acceleration z (m/s^2),Absolute acceleration (m/s^2)
0.00566129165235907,-0.40503019630909,-0.457040010094643,0.215663439631462,0.647646315471002
0.0156342916889116,-0.452717455923557,-0.219855308532715,0.49006508409977,0.702462268197821
0.0256062916014344,-0.422394380271435,0.0783216995000839,0.730544691681862,0.847494452867992
0.0355782916303724,-0.365010975301266,0.159378726482391,0.888925298452377,0.974075344505844
0.045551291666925,-0.396185990273953,0.195844302177429,0.880619913339615,0.985296788462739
0.055523291695863,-0.503440151363611,0.487157263755798,0.77270077764988,1.0429960102588
0.0654962916160002,-0.763295092731714,1.17877411723137,0.680673789381981,1.5605911141598
0.0754682916449383,-0.899988230466843,2.23577470600605,0.732647350430489,2.51901557976288
0.0854412916814908,-0.534643525332213,2.4525958943367,0.653809341788292,2.59394236163924
0.0954132915940136,0.147243122756481,1.66130097091198,0.307151899337769,1.69586076740367
0.105386291630566,0.614218721687794,0.654192919135094,-0.139701676368713,0.908157239633375
0.115358291659504,0.731531409323216,0.038621444106102,-0.502167066335678,0.888145022664335
0.125331291696057,0.639082982987166,-0.380931481719017,-0.816613367199898,1.10471410075095
0.135303291608579,0.0437591001391411,-1.1090799844265,-1.11338061153889,1.57212902042141
0.145276291645132,-0.496380077004433,-0.863616210222244,-1.24942310035229,1.59789994151683
0.15524829167407,-1.12181989789009,-0.47613409280777,-1.40022454619408,1.85628993893745
0.165221291594207,-1.47965224653482,-0.135829650163651,-1.76597256302834,2.3079167138153
0.175193291623145,-1.46813235461712,-0.125028673410416,-2.28245244383812,2.7167322168795
0.185166291659698,-1.19082215890288,-0.300687802433968,-2.90254674017429,3.15170559341495
0.195138291688636,-0.852644933313131,-0.360176205039024,-2.61434274315834,2.77335866048471
0.205111291608773,-0.472873539179564,-0.0842993080615997,-0.249992442727089,0.541490515906352
0.215083291637711,0.182412590011954,-0.0919270008802414,1.27691963195801,1.29315454334178
0.225056291674264,0.786415495052934,-0.4055886054039,2.57926588118076,2.72682304770882
0.235028291586787,1.03618186980486,-1.12794017851353,2.69761177182198,3.10210109201649
0.245001291623339,0.662404748797417,-1.62877349495888,2.76398994863033,3.27586989748363
0.254973291652277,0.361904349625111,-1.78034384965897,2.2442905908823,2.88746242185399
0.26494629168883,0.27535675060004,-1.36206210851669,1.6070505040884,2.12453426666852
0.274918291601352,0.296603631936014,-0.751036258935928,1.41035426259041,1.62515486115048
0.284891291637905,0.490435359030962,-0.419158238768578,1.35670722842217,1.50228991015994
0.294863291666843,0.635089261606336,-0.616015863418579,1.05124634385109,1.37402066565656
0.304835291695781,0.521733859889209,-1.15353344142437,0.510878248214722,1.36522606389498
0.314808291615918,0.412592254132032,-1.27786571145058,-0.196452412605286,1.35711705283269
0.324781291652471,0.304143616519868,-0.951532021164894,-0.813766357898712,1.28846117986522
0.334753291681409,0.118730454705656,-0.541874338388443,-1.13433527827263,1.26271186064453
0.344725291593932,0.068286726269871,-0.202078603506088,-1.21159395396709,1.23022711247527
0.354698291630484,0.351999933756888,0.104274566173553,-1.07297284305096,1.13404050211639
0.364670291659422,0.786601217240095,0.360980197191238,-0.750943872928619,1.14584679517676
0.374643291695975,1.28471280097961,0.624899538159371,-0.337207172513008,1.46788796949457
0.384615291608498,1.8090548479557,0.925456947684288,-0.0352323979139328,2.0323364206725
0.39458829164505,2.15256502658129,1.19274603903294,-0.107453112602234,2.4632753558418
0.404560291673988,2.45934562772512,1.51921363055706,-0.504010108709335,2.93435123350328
0.414533291594125,2.14731568872929,1.74982898533344,-0.843454425930977,2.89556238295751
0.424505291623063,1.78183635145426,1.88322911739349,-1.1900177282095,2.85265400730888
0.434478291659616,1.65040088385344,2.04341475963593,-1.41605880618095,2.98405588082475
0.444450291688554,1.49607327461243,1.85087062597275,-1.4665881049633,2.79550317236775
0.454423291608691,1.43984118640423,1.46966432511807,-1.39503923535347,2.48579772684068
0.464395291637629,1.39189562603831,1.13415284514427,-1.2981561344862,2.21560047378529
0.474368291674182,0.726268769055605,0.985099132061005,-0.983043251037598,1.56979637478988
0.48434029170312,0.885482969507575,0.619897829890251,-0.613813802003861,1.24302887831338
0.494313291623257,0.604488735571504,0.367648946642876,-0.259365529417992,0.753553486655543
0.504285291652195,0.963888795822859,0.140255407691002,-0.230330595374107,1.00090227957818
0.514258291688748,0.702710044831038,0.228268282413483,-0.424730050563812,0.85223437604592
0.52423029160127,0.644161947593093,0.280876266360283,-0.515036787986756,0.871262867744938
0.534203291637823,0.329206938967109,0.17194322347641,-0.597037555575371,0.703132650024849
0.544175291666761,0.397692415751517,-0.0565174323320389,-0.656154659986496,0.769345446159057
0.554148291586898,0.452831951715052,-0.454374849200249,-0.749546973109245,0.986576882446089
0.564120291615836,-0.11246563822031,-0.902558666467667,-0.831127910614014,1.23208533389445
0.574093291652389,-0.605855631865561,-1.25204382240772,-0.760638556480408,1.5853219841714
0.584065291681327,-0.362517941817641,-1.46901528418064,-0.993330257534981,1.81000833253069
0.594038291601464,-0.217448558025062,-1.66664123296738,-1.17675273478031,2.0517611638851
0.604010291630402,-0.282550689652562,-1.7902548801899,-1.09716686725616,2.11863695872407
0.613983291666955,-0.0911746469512582,-1.86028756678104,-0.815422289371491,2.03319850417284
0.623955291695893,0.899157341122627,-2.14778171181679,-0.764283710718155,2.45062844923062
0.63392829161603,1.22297702103853,-2.21168534696102,-0.903730448484421,2.68401818016723
0.643900291644968,0.934076035916805,-2.22752603888512,-1.21594837546349,2.70423755365123
0.653873291681521,0.693297197073698,-2.308014716506,-1.60152371585369,2.89352227354834
0.663845291594043,0.319274091012776,-2.49468298316002,-1.93675160586834,3.17433235728299
0.673817291622981,-0.220496528819203,-2.76787776231766,-2.24646692454815,3.57160743495737
0.683790291659534,-0.626108157634735,-2.90779227733612,-2.34526381909847,3.78781331830975
0.693762291688472,-0.485596203356981,-2.90009207904339,-2.28119704663754,3.72158537524436
0.703735291608609,0.0154198385775089,-2.97140647530556,-2.2371803766489,3.71947177036908
0.713707291637547,0.348161931037903,-3.26479461371899,-2.04577001810074,3.86849784373114
0.7236802916741,0.514688586294651,-3.65089795768261,-1.93306844472885,4.16301739730685
0.733652291703038,0.657161550521851,-4.15109334290028,-2.20141705155373,4.74443613929272
0.743625291623175,0.450748698413372,-5.1374186360836,-2.73472171068192,5.83737504931587
0.753597291652113,0.0265155149996281,-4.90700267136097,-2.45946637272835,5.48893005310333
0.763570291688666,0.644989694058895,-2.47136662602425,-1.96629115462303,3.22334695780914
0.773542291601189,1.78897565558553,-0.701568814516068,-2.26393314242363,2.96951611734021
0.783515291637741,1.24909448683262,-1.19565853714943,-3.13905257999897,3.58378117000636
0.793487416696735,0.343355665951967,-2.28573273181915,-3.54246543645859,4.22983789324774
0.803460416616872,-0.0100297290086746,-2.43993024051189,-3.20796026229858,4.03043040115013
0.81343241664581,-0.380771414190531,-2.24972967088223,-2.743348107934,3.56822495131929
0.823405416682363,-0.21193525493145,-2.46462127804756,-1.97402175843716,3.16481223760131
0.833377416594885,0.143398432284594,-2.45747130274773,-1.23537633419037,2.75424817351086
0.843350416631438,0.322260519862175,-2.11575943529606,-0.95428430557251,2.34327727052693
0.853322416660376,0.617974680662155,-1.51888969480991,-1.0568134778738,1.95083913687289
0.863295416696928,1.13003640532494,-1.07397622525692,-1.38579829573631,2.08586771542264
0.873267416609451,1.24949882179499,-0.942615894377232,-1.68250765264034,2.29795649027412
0.883240416646004,1.13820964336395,-0.93249728769064,-1.72671026408672,2.26861206906327
0.893212416674942,1.02611237972975,-1.29249105960131,-1.84144023656845,2.47271953521568
0.903185416595079,0.389763408601284,-1.81152968198061,-2.19396769881249,2.87176767284783
0.913157416624017,-0.214541358947754,-1.94820396244526,-2.48685765445232,3.16638400505919
0.92313041666057,-0.461979153156281,-1.51015804767609,-2.42361943244934,2.89273801445238
0.933102416689508,-0.0526869213581085,-0.690101839900017,-2.05744807720184,2.17073928685532
0.943075416609645,-0.0976964485645294,-0.399110767543316,-1.58054449081421,1.63308140895495
0.953047416638583,0.19006023645401,-0.974927023351193,-0.638800708651543,1.18096229394299
0.963020416675136,0.553429605960846,-1.58845372706652,0.76155715405941,1.84646659073067
0.972992416587658,0.192789131999016,-2.05538634896278,1.89773956775665,2.80413911208925
0.982965416624211,-0.253297581374645,-2.37245804965496,2.15281967282295,3.2136193623073
0.992937416653149,-0.0122870466113091,-2.16120019465685,1.94301163494587,2.90624009098255
1.0029104166897,0.693736176788807,-1.37344853773713,1.44423361480236,2.11031786774479
1.01288241660222,0.918415730595589,-0.440874505341053,0.374846284389496,1.08552637949787
1.02285541663878,1.08581654459238,0.224776179045439,-0.92400274515152,1.44336515553908
1.03282741666771,1.19487851858139,0.585882091373205,-1.32398328602314,1.87721182630723
1.04280041658785,0.818499094247818,0.781089193224907,-0.63213137447834,1.29600585247795
1.05277241661679,0.815366156101227,0.832446457743645,1.04509624242783,1.56525244911548
1.06274541665334,0.877235544919968,0.878162767142057,3.20139266967773,3.43360263751238
1.07271741668228,1.12962710022926,0.242449388355017,4.70075909614563,4.84065854729312
1.08269041660242,1.41589625358582,-0.249487499110401,5.59957554459572,5.7811981883313
1.09266241663136,2.04687572658062,0.918427132666111,5.83254148006439,6.24913984119046
1.10263541666791,5.3379845649004,5.02082047820091,5.14204612255097,8.95228215685129
1.11260741669685,9.56790714561939,6.75258507549763,4.10105345606804,12.4080978316
1.12258041661698,10.6011610221863,4.07987893402577,3.9298896664381,12.0197362668657
1.13255241664592,7.19885451436043,0.836852480918169,4.38197650015354,8.4690936021303
1.14252441667486,0.984023829102516,1.66542998224497,5.35417784392834,5.69290613890789
1.152497416595,-2.6819979518652,1.69237512141466,5.34997837364674,6.21928574386804
1.16246941662394,-4.14325544267893,0.149694056287408,4.50647366166115,6.12350217090041
1.17244241666049,-4.9869674384594,-1.00322857037187,3.89127406954765,6.40455507283672
1.18241441668943,-4.29972839534283,-0.805553797334433,3.34944066166878,5.50956749120632
1.19238741660956,-3.17778102815151,-0.454786931723356,2.75546997070313,4.23057184971402
1.2023594166385,-2.31411745548248,-0.0337094175070524,2.31207736194134,3.27138772544604
1.21233241667505,-1.27423575997353,0.260302838087082,1.84651678919792,2.25855232224124
1.22230441658758,-0.147718209028244,0.301239633411169,1.32446743547916,1.36630156761271
1.23227741662413,0.740215401649475,0.525774103179574,1.06653973639011,1.4006656480804
1.24224941665307,1.13979189991951,0.902790508568287,0.962478593587876,1.743709069942
1.25222241668962,1.03966534852982,1.14673941537738,0.903404173851013,1.79222052913281
1.26219441660214,0.417295900583267,1.19912959054112,0.918087701797485,1.56682247614295
1.27216741663869,-0.42461719930172,0.984354927688837,0.925749893188477,1.41642763823169
1.28213941666763,-1.38224143445492,0.443150826394558,1.03218559026718,1.78111794410516
1.29211241658777,-2.33716367125511,-0.157093634605408,1.22891749978066,2.64523168314901
1.30208441661671,-2.98747579336166,-0.630589025169611,1.48651541590691,3.39593613254359
1.31205741665326,-3.18505145609379,-0.853980291187763,1.73440286099911,3.72585404973735
1.3220294166822,-3.13695810735226,-0.840502751469612,1.93494540095329,3.78033923705021
1.33200241660234,-2.79702145457268,-0.56421596467495,1.91474151670933,3.43626304987617
1.34197441663127,-1.95637953937054,-0.0521432764828205,1.59579227507114,2.52521143838031
1.35194741666783,-1.23321578800678,0.608926114439964,1.07777106821537,1.74734160029407
1.36191941669676,-0.932030972242355,0.902917246967554,0.464258982539177,1.37821540078422
1.3718924166169,-0.954150404334068,0.829165292680264,0.100052876472473,1.26804126698102
1.38186441664584,-1.29492145478725,0.594287902414799,0.0139491176605225,1.4248488561628
1.39183741668239,-1.70233556091785,0.194524293243885,0.245126974582672,1.73085912086905
1.40180941659492,-2.08682858169079,-0.278489432930946,0.634726368784905,2.19892870663118
1.41178241663147,-2.49757326185703,-0.657501712292433,1.06347228705883,2.79305460121223
1.42175441666041,-2.85803247213364,-0.94342924207449,1.44663506627083,3.33933546705568
1.43172741669696,-2.76643408477306,-0.93731860935688,1.85310718595982,3.45915162482028
1.44169941660948,-2.06631245613098,-0.55514634847641,2.07186964988709,2.97833485033365
1.45167241664603,-1.70316352665424,-0.200792508423328,1.68270821213722,2.40262160090979
1.46164441667497,-1.70787287414074,-0.00520372956991196,0.92816537797451,1.94379726357914
1.47161741659511,-1.73346262872219,0.148168736994267,0.269211655855179,1.76048901599732
1.48158941662405,-1.49393260896206,0.167332401573658,-0.0809517771005631,1.5054527435135
1.4915624166606,-1.32642449855804,0.112560070753098,-0.140436086654663,1.33857910275702
1.50153441668954,-0.939207260012627,-0.25434686422348,0.135684639215469,0.982452505681458
1.51150741660967,-1.02944558501244,-0.379927222430706,0.420348147153854,1.17507253889332
1.52147941663861,-1.10383854031563,-0.160433271825314,0.995965597629547,1.49537481236521
1.53145241667517,-0.56682499229908,0.167313398122787,1.70432069063187,1.80388285695112
1.54142441658769,0.731097838282585,0.449093936383724,2.23057887017727,2.38991035583333
1.55139741662424,1.96726939380169,0.460639556050301,2.29143142819405,3.05499519778714
1.56136941665318,2.45756134986877,0.481515285372734,1.89604387521744,3.14109011891827
1.57134241668973,2.44636802494526,0.58014641135931,1.56882842481136,2.96352982076843
1.58131441660225,2.52675846934319,0.854164186120033,1.41345445632935,3.01860204720081
1.59128741663881,2.59837458193302,1.09196430712938,1.18845886051655,3.05881855938211
1.60125941666774,2.88498930573463,1.3440746113658,0.805258074402809,3.28300783147288
1.61123141669668,3.27283044219017,1.55179080784321,0.292025737166405,3.63383445492512
1.62120441661682,3.32793577194214,1.80677501857281,-0.144488207101822,3.78952098713048
1.63117641664576,3.38073671400547,1.81414484918118,-0.392196727395058,3.85672406793829
1.64114941668231,3.37575722515583,1.98477975815535,-0.538325663208962,3.95283215571372
1.65112141659483,3.72401212692261,1.56979380011559,-0.911317210793495,4.1428272900323
1.66109441663139,4.10416417479515,1.27338586717844,-1.4590522134304,4.53811728604693
1.67106641666032,4.28911511421204,1.03754105508327,-1.86932385385036,4.79242856749263
1.68103941669688,3.49259921193123,1.39789530783892,-1.97317332744598,4.24803172386989
1.6910114166094,2.37975128173828,1.31357494980097,-2.21417772263289,3.50589194058849
1.70098441664595,1.83111522316933,0.856654222905636,-2.74126971513033,3.40608265742851
1.71095641667489,1.72661436975002,0.689712707698345,-2.79763395041227,3.35911543735657
1.72092941659503,1.67719779610634,0.791588161289692,-2.43382136195898,3.05991677767318
1.73090141662397,1.68124406933785,0.802952517271042,-2.07168020009995,2.7862471565103
1.74087441666052,1.91159045219421,0.646100957393646,-1.68684394776821,2.6300317504143
1.75084641668946,2.14095040977001,0.494987854957581,-1.17707140803337,2.4928254518236
1.76081941660959,2.1057630354166,0.413087367117405,-0.655316753983498,2.24372885666927
1.77079141663853,2.11749898195267,0.404239652752876,-0.30339740216732,2.17698452430655
1.78076441667508,2.28517139911652,0.0769560822844505,-0.152411769032478,2.2915409464551
1.79073420830537,1.90395866632462,-0.028513654768467,-0.0420555138587952,1.90463652643406
1.80070720834192,1.12107086956501,0.0253514805436134,-0.0828891058266163,1.12441682485533
1.81067920825444,0.746497065424919,0.0324517545104027,-0.0371048225462437,0.748122819405348
1.82065220829099,0.419724249243736,0.110771992206574,0.332365531772375,0.546722714336038
1.83062420831993,-0.05239397585392,0.14863388299942,0.859737167358398,0.874062444461898
1.84059720835648,-1.35733404994011,0.37084912776947,1.48650079786778,2.04684377048072
1.85056920826901,-1.99242119193077,0.774383021593094,2.15254719257355,3.03362335935804
1.86054220830556,-2.0652049934864,1.01180599719286,2.70437758505344,3.54999734698719
1.8705142083345,-2.41155136406422,1.03234112620354,2.99729385316372,3.9830991231181
1.88048720825464,-2.71231927335262,1.06332669138908,2.7981382727623,4.0394204147028
1.89045920828357,-3.27345375537872,0.747249894440174,1.87226617276669,3.84438064127765
1.90043220832013,-2.79431243956089,0.395785163640976,1.09057062327862,3.02558625558773
1.91040420834906,-1.76394708752632,0.0336214900016785,0.798336725234985,1.93648683420297
1.9203772082692,-1.19071179270744,-0.549258787035942,0.412680072002113,1.37469437703674
1.93034920829814,-1.14405802845955,-1.64590729862452,-0.682320365309715,2.11741367924754
1.94032220833469,-1.19789100408554,-2.19693019062281,-1.6396890771389,2.991659303769
1.95029420836363,-1.47814863502979,-1.69021954536438,-1.51543925285339,2.70893366988951
1.96026720828377,-1.55021205961704,-1.21549580097199,-0.809496136307716,2.12975854656338
1.97023920831271,-1.531974593997,-1.08751983851194,-0.255835565328598,1.89607420537708
1.98021220834926,-1.25695957660675,-1.26860693782568,0.0143812223291025,1.78592210341844
1.99018420826178,-0.566827331185341,-1.80487642765045,0.0372613817453384,1.89215764486909
2.00015720829833,0.963173242807388,-3.31545138180256,-0.190435627698898,3.45777186769944
2.01012920832727,1.47953968763351,-3.75581513285637,0.206481556892395,4.04200688183634
2.02010220836382,0.521503223776817,-2.60318216264248,0.348687011003494,2.67770528922661
2.03007420827635,-0.82111279964447,-1.10056000649929,-0.0227655494213104,1.3733087154337
2.0400472083129,-0.898372060060501,-0.18805084079504,-0.112339046001434,0.924692131618726
2.05001920834184,-0.779020448327065,0.17282703012228,0.178465226087719,0.81767467746967
2.05999220826197,-0.66021964430809,-0.421835094094276,0.384802923202515,0.872873481694242
2.06996420829091,0.283397585749626,-2.28485681891441,0.356376099586487,2.32978299395134
2.07993720832746,0.0125294137001038,-2.52049727082253,0.532378496713936,2.57613864964502
2.0899092083564,-0.475791445970535,-2.21075680911541,0.610816519260407,2.34241755229726
2.09988120826893,-1.09182017326355,-2.13697371840477,0.183680960722268,2.40675438282136
2.10985420830548,-1.75560895800591,-2.22525556504726,-0.235862646102905,2.84421453674491
2.11982620833442,-3.08932084143162,-2.45694593042135,0.306299411840737,3.95907892015451
2.12979920825455,-3.68987783610821,-2.48532422214746,1.09686047315598,4.58204515824184
2.13977120828349,-3.74197301924229,-2.08269840091467,1.77785761356354,4.63689253703551
2.14974420832004,-3.44125948905945,-1.48363478511572,2.42191087603569,4.46196048145958
2.15971620834898,-1.93284157276154,-1.56507626652718,1.60671545863152,2.96089088458988
2.16968920826912,0.251298125982285,-1.79410322517157,0.642476853132248,1.92216899296184
2.17966120829806,2.96224213421345,-0.589322739243507,0.838053352832794,3.13440794646983
2.18963420833461,3.45593600034714,1.22532204687595,1.1884664618969,3.85452465138172
2.19960620836355,2.67777918577194,2.11225870728493,1.67596286416054,3.80013022622905
2.20957920828369,2.77273679852486,2.23243594586849,2.62370939791203,4.42218165739395
2.21955120831262,4.3500132805109,2.41707405924797,2.71712217628956,5.66988672456472
2.22952420834918,6.97194337069988,2.27421430170536,-0.702499106526375,7.36705843936354
2.2394962082617,8.61126582741737,2.38033132553101,-4.32144495427609,9.92445277396133
2.24946920829825,9.0474230915308,3.29789336264133,-5.42903857648373,11.0547014927345
2.25944120832719,7.22442906618118,3.9378494811058,-2.55257041811943,8.61479248778444
2.26941420836374,5.18667558073998,2.80126887202263,-0.51426495552063,5.91719353390473
2.27938620827626,3.83381815910339,0.919979276061058,-1.68473251819611,4.28752226855094
2.28935920831282,3.35280573427677,-0.579020529985428,-3.09852406650782,4.60189335563874
2.29933120834176,3.44561215639114,-0.943823636770249,-3.26921364694834,4.84260302512914
2.30930420826189,2.61066542923451,-1.06854416191578,-3.05140486389399,4.15553032148249
2.31927620829083,-0.83385680615902,-0.870792497992516,-2.8421537733078,3.08730219105055
2.32924920832738,-2.29269793510437,-1.16876309931278,-3.03790130406618,3.98137103736817
2.33922120835632,-0.883440610170365,-1.39036029338837,-2.67886501371861,3.1448190438966
2.34919420827646,0.473671245574951,-1.10432327449322,-2.20719497770071,2.51308655104817
2.3591662083054,1.49475414276123,-0.629572048187256,-2.22568767428398,2.75396741713118
2.36913920834195,2.82448231816292,0.13512973845005,-2.45345309615135,3.74371373195697
2.37911120825447,4.59616000950337,0.898755637407303,-2.17285457253456,5.16272655891378
2.38908420829102,3.93029078543186,0.755928039550781,-1.26449400633574,4.19732747722747
2.39905620831996,3.19117407560349,0.177294595241547,-0.607407592535019,3.25330129833909
2.40902920835651,1.74499158382416,-0.439568237364292,-0.213900796473026,1.81217256729278
2.41900120826904,-0.981443452835083,-1.2752137067914,-0.818204979300499,1.80523146362278
2.42897420830559,-1.81871971070766,-0.852824004292488,-0.717282037138939,2.1329659371908
2.43894620833453,-1.56577851712704,-0.610801755040884,0.263531378209591,1.70123188776798
2.44891920825467,-1.43577444791794,-0.264444713294506,1.22925371468067,1.90851878867872
2.4588912082836,-1.49273217558861,0.061039230376482,1.52002376228571,2.13130180256004
2.46886420832016,-1.57915811598301,-0.373227628916502,1.46683997377753,2.18738627748583
2.47883620834909,-2.42990285038948,-0.454461022540927,0.865299915969372,2.61910416515198
2.48880920826923,-4.12049544811249,-0.468998699001968,-0.0486150665581226,4.14738543449698
2.49878120829817,-5.64882371842861,-0.287298555672169,-0.704739174842835,5.69986027605336
2.50875420833472,-6.97816539287567,-0.331278680562973,-0.259472972005606,6.99084143989296
2.51872620836366,-7.35365662515163,-0.667828333675861,1.00831725597382,7.45244685540201
2.5286992082838,-6.40373960494995,-0.910020590722561,2.05930105984211,6.78798491885555
2.53867120831274,-4.62392434358597,-0.827495912611485,2.27257371917367,5.21823889158732
2.54864420834929,-2.95097221076489,-0.519707507304847,1.1687240691483,3.21624763220468
2.55861620826181,-3.85707955241203,-2.42894273757935,0.0871737261861563,4.55899383138557
2.56858920829836,-4.21823808968067,-1.18147202253342,-0.877347884550691,4.46756623138232
2.5785612083273,0.253140583634377,4.45393642902374,-2.26201759457588,5.00183500997768
2.58853420836385,3.98134165585041,4.68033214062452,-4.48184928238392,7.60549559970801
2.59850620827638,2.40073459982872,1.45849234253168,-5.41576656639576,6.10092239204273
2.60847920831293,1.02763470232487,-0.865871773660183,-4.05309927105904,4.2700562889619
2.61845120834187,-6.53453655660153,0.243381580710411,1.78132033467293,6.77735233982343
2.628424208262,-6.46092946708202,3.26518228411675,5.73673835992813,9.23662232298093
2.63839620829094,-2.40865289926529,3.34109551548958,4.5452792930603,6.13384804871187
2.64836920832749,1.25265544116497,-0.544336600899696,2.14096502780914,2.53952342766533
2.65834120835643,1.87947812855244,-2.59691599398851,-0.185442032441497,3.21104336048836
2.66831420827657,1.00506912767887,-2.26854001745582,-0.658260680884123,2.56704984100614
2.67828620830551,1.15355507612228,-0.734480013996363,-1.84387618660927,2.29565450278397
2.68825920834206,0.797561384439468,1.08965114861727,-4.3088108754158,4.51545069154048
2.69823120825458,1.43928745508194,0.877580676823855,-7.07119693279266,7.26935501162429
2.70820420829114,1.33784878849983,-1.55778756603599,-7.71940873503685,7.9878540735513
2.71817620832007,0.547143849134445,-3.11977372527123,-6.37512216210365,7.11860499468003
2.72814820834901,-0.842259839773178,-2.30249552965164,-4.09959048271179,4.77676976917473
2.73812120826915,0.3571666431427,-1.93727259278297,-0.515028382614255,2.03613539447163
2.74809320829809,0.605531805753708,-2.4796082764864,2.45006755828857,3.53807249964968
2.75806620833464,4.81679650604725,-1.84912654772401,2.37870579957962,5.68146449879962
2.76803820836358,9.73610639691353,-1.56164921343327,3.72153875470161,10.5394670994592
2.77801120828372,8.58398096501827,-1.34108361437917,6.25287910223007,10.7042856620915
2.78798320831265,6.31518878638744,-2.23734263688326,6.80520826220513,9.5497733467614
2.79795604164246,3.75447085797787,-3.13662306189537,5.16749437451363,7.11599984306133
2.8079280416714,0.965598667860031,-3.84258635133505,3.96545886397362,5.60559672619307
2.81790104159154,-0.851044696569443,-4.22801404953003,3.63056777358055,5.63749964409258
2.82787304162048,-2.2909847009182,-1.97019110128284,2.61000177025795,3.99279014176364
2.83784604165703,-2.44255505561829,2.4493555136025,0.673991006612778,3.52415685075683
2.84781804168597,-2.17822407066822,2.52621614009142,0.672932733669877,3.40283213699137
2.85779104160611,-2.78329219222069,-0.0819010725617409,-1.5245784509182,3.17454920673275
2.86776304163504,-3.73103814125061,-2.5715107190609,-4.39854341626167,6.31510072559819
2.8777360416716,-4.47350355148315,-2.47743223518133,-5.97213439822197,7.86233386313975
2.88770804170053,-4.70915043532848,-1.5328983078897,-5.99575013279915,7.77656059578054
2.89768104162067,-4.97770661830902,-1.37697470113635,-4.94206316113472,7.14825928420143
2.90765304164961,-4.88171755671501,-0.920548794865608,-2.81341236948967,5.70910374297626
2.91762604168616,-4.83213082909584,-0.513254556655884,-0.926579174548388,4.9468644165909
2.92759804159869,-5.39799980163574,0.631723531186581,0.525151155441999,5.46015203216691
2.93757104163524,-5.89849573373795,1.22394385814667,1.85398485302925,6.30297947990326
2.94754304166418,-5.26673039495945,-0.602015728801489,2.607564650774,5.90764465746547
2.95751604170073,-5.06100663721561,-1.45681667670608,3.36852714300156,6.25164603321459
2.96748804161325,-5.18972431898117,-2.44505152434111,4.10889486461878,7.0565241069664
2.9774610416498,-5.17297380030155,-1.99984627872705,3.94925389051437,6.80849831966548
2.98743304167874,-5.38830160975456,-2.05130323827267,3.15437754750252,6.57204206660453
2.99740604159888,-6.20632474064827,-2.13523037105799,2.25539752319455,6.94006437372906
3.00737804162782,-6.90936237573624,-1.71795420482755,1.5242536380887,7.28107164106705
3.01735104166437,-7.79973895311356,-1.32855800136924,1.10029892832041,7.98821956579701
3.02732304169331,-8.26230399727821,-1.09415759772062,0.836867829859257,8.37634741141643
3.03729604161344,-7.92677965342999,-1.27934067159891,0.287046979218721,8.03448468766463
3.04726804164238,-6.93584792375565,-2.05272498875856,-0.705932006835938,7.26759976190315
3.05724104167894,-5.15817332804203,-3.3814377951622,-1.85576006770134,6.44086322425422
3.06721304159146,-3.0786356395483,-4.71077128350735,-2.68509756088257,6.23531173222895
3.07718604162801,-2.02256885111332,-4.19488197147846,-3.127469830513,5.60971363376937
3.08715804165695,-0.803589863777161,-2.27327699303627,-3.43467786312103,4.19649341470317
3.0971310416935,3.35640294134617,-0.0760792922973633,-4.30860856175423,5.4621732398209
3.10710304160602,6.71561196148396,-0.930127703547478,-3.94236470103264,7.84262844957487
3.11707604164258,8.24761462211609,-3.0242156034708,-3.78745558619499,9.56628699070956
3.12704804167151,8.26137955248356,-6.07362510502338,-3.59810987949371,10.866724839227
3.13702104159165,5.32355129778385,-11.0778424143791,-1.16983577102423,12.3461454190821
3.14699304162059,1.38394472837448,-14.3068082141876,-1.16732658460736,14.4209124414467
3.15696604165714,-2.96693774074316,-13.9116276526451,-1.0132102060318,14.2605293879608
3.16693804168608,-4.12970481276512,-10.1592132604122,0.0485764749348164,10.9666054722976
3.17691104160622,-1.23259539842606,-7.56037148594856,-0.684299647808075,7.69069401483087
3.18688304163516,1.60737619400024,-6.95055484056473,-2.43083723545074,7.5367659168897
3.19685604167171,3.7247895142436,-5.58793256878853,-2.9401905298233,7.3310140956357
3.20682804170065,6.10846047699452,-4.02799015760422,-1.95297836020589,7.57311815464363
3.21680104162078,8.42513667404652,-2.02273842036724,-0.338894094228745,8.67117338661248
3.22677304164972,9.53349101901054,-0.844212809801102,0.0156062185764313,9.57080925689386
3.23674604168627,8.61617164134979,0.0207359808683395,-0.836262058317661,8.65668400510753
3.2467180415988,7.9500498175621,1.2629366004467,-1.19589447230101,8.13808727818443
3.25669104163535,6.69256516098976,2.83365250647068,-1.58215802997351,7.43795932990569
3.26666304166429,4.26501172184944,4.2076464432478,-2.0822066500783,6.34272797087493
3.27663604170084,2.86430741161108,4.96059415698052,-1.05456785470247,5.82441968771578
3.28660804161336,2.70631505995989,5.20494403660297,0.683146869242191,5.90612167779246
3.29658104164992,2.60071785360575,4.97134777128697,1.90484715074301,5.92507170292793
3.30655304167885,1.90562570750713,4.583534116745,3.06386235684156,5.83330497043898
3.31652604159899,0.518941850960255,3.8642423915863,3.65382448911667,5.34341681912233
3.32649804162793,-0.438942292928696,2.49842987895012,2.90322560191155,3.85532632758199
3.33647104166448,-0.873804983496666,1.25503525793552,2.06741611808538,2.57154779328795
3.34644304169342,-0.96028354883194,0.468065519928932,1.69182051301003,2.00087142848937
3.35641604161356,-0.860571272671223,0.0328145742416382,1.34364308685064,1.59594375103609
3.36638804164249,-0.813390966653824,0.0227252036333084,1.21692369103432,1.46390729532809
3.37636104167905,-0.907135282158852,0.185457893013954,1.21220381855965,1.52536131718003
3.38633304159157,-1.32224081575871,-0.458821656703949,0.67166863873601,1.55241001278022
3.39630604162812,-1.11568733811378,-0.202432944774628,0.691861267089844,1.3283107115644
3.40627804165706,-0.549226042628288,0.346727609038353,0.974298009127379,1.17095084925037
3.41625104169361,-0.118202633857727,0.17385233938694,0.951298790350556,0.974251449618448
3.42622304160614,0.235132913589478,-0.0698672103881836,0.815045728683472,0.851157126496439
3.43619604164269,0.711300920248032,-0.507338343858719,0.502370549440384,1.00782804249536
3.44616804167163,1.32559302449226,-1.56101362109184,-0.193558077402413,2.05704280975009
3.45614104159176,1.87725735604763,-1.93964129984379,-0.946585276722908,2.86047675029937
3.4661130416207,2.10932515919209,-2.81496363580227,-5.07154448926449,6.17202044752598
3.47608604165725,1.49632762849331,-4.16808125853539,-13.7871895480156,14.4809700428686
3.48605804168619,0.24136312186718,-4.26056491434574,-11.2365826249123,12.0196280571585
3.49603104160633,-0.50065263748169,-3.2752880269289,-3.73355010509491,4.99174930360244
3.50600304163527,-1.04847534835339,-1.96195310533047,0.0653321099281311,2.22549518719055
3.51597604167182,-1.34078175187111,-0.965542534589768,1.55368647515774,2.26801890541959
3.52594804170076,-1.05892315328121,-0.401278038024902,1.64653967499733,1.9983581284886
3.5359210416209,-0.718121112585068,-0.0632680428028107,1.26373065233231,1.45489378967152
3.54589304164983,-0.526872137188912,0.157888855934143,0.712193132266402,0.899856764947418
3.55586604168639,-0.490427026748657,0.292146189808846,0.198684879541397,0.604436718063797
3.56583804159891,-0.442555287480354,0.289374024868012,0.0499445772171021,0.531118602139415
3.57581104163546,-0.351458006501198,0.150313203334808,0.358225500807166,0.523872407041173
3.5857830416644,-0.294212595820427,-0.0136602652072907,0.660994985103607,0.72364495763948
3.59575604170095,-0.264500554203987,-0.0897635310888291,0.686179600730538,0.74085118556055
3.60572804161347,-0.189946215748787,-0.0990465706586838,0.475058789849281,0.521124401510421
3.61570104165003,-0.079730293750763,-0.0484032511711121,0.073012427687645,0.118450871935838
3.62567304167897,0.0389149743318558,0.0766400402784348,-0.460040874257684,0.468001791651381
3.6356460415991,0.156385536789894,0.202767405509949,-0.927175590544939,0.961886496711881
3.64561804162804,0.217848544120789,0.32146646797657,-1.28467303991318,1.34208177757119
3.65559104166459,0.219755905866623,0.441593420505524,-1.45814340993762,1.53931140811128
3.66556304169353,0.158266586065292,0.540390315055847,-1.42821472898126,1.53520920950531
3.67553604161367,0.117271172404289,0.56644492328167,-1.21074508443475,1.34183308890173
3.68550804164261,0.163079429268837,0.525074703097344,-0.954405489116907,1.101448220181
3.69548104167916,0.369114843606949,0.401030700802803,-0.875342216491699,1.03116215346083
3.70545304159168,0.618948242068291,0.249208915829659,-0.939115458726883,1.15201556192103
3.71542604162823,0.779311639666557,0.0740935778617859,-1.00054338276386,1.27039503729851
3.72539804165717,0.675739324092865,0.0335928386449814,-0.890477222576737,1.11834779780786
3.73537104169372,0.276949276328087,0.180065006017685,-0.591563538461924,0.677548321589237
3.74534304160625,-0.329591174125671,0.407168523073196,-0.255579018741846,0.582869782253456
3.7553160416428,-0.95403462946415,0.636302778124809,0.0563835310935974,1.14814737827717
3.76528804167174,-1.42078218698502,0.807149648666382,0.193621702417731,1.64547924382027
3.77526104159188,-1.5217653554678,0.866395976543427,-0.00700613379478455,1.75113131180486
3.78523304162081,-1.22258204162121,0.651161722540856,-0.326945382133126,1.42323986744864
3.79520579159725,-0.778844447135925,0.278453180193901,-0.617079545035958,1.03195058568536
3.80517779162619,-0.338667222261429,-0.162235091328621,-0.930541174784303,1.00345532549368
3.81515079166275,-0.0812423837184906,-0.560140455365181,-1.1532452467829,1.28465258100248
3.82512279169168,-0.116637334227562,-0.809048239588738,-1.039026247859,1.32202075076653
3.83509579161182,-0.366316366195679,-0.946687018275261,-0.734545356631279,1.25298079461031
3.84506779164076,-0.589111070036888,-0.969499930143356,-0.405189971476793,1.20464139077708
3.85504079167731,-0.622098137140274,-0.920723041892052,-0.297212217450142,1.1502487184544
3.86501279158983,-0.468280112743378,-0.717365067601204,-0.488006425648928,0.985925542665405
3.87498579162639,-0.478189389109612,-0.441249019503593,-0.312244970351458,0.721708189353349
3.88495779165532,-0.69385692179203,-0.170204261541367,0.235989384502173,0.75239478212124
3.89493079169188,-0.91135229408741,0.0446002221107483,0.822366881221533,1.22834826945811
3.9049027916044,-0.923995143771172,0.155458753108978,1.28021263763309,1.58646741132189
3.91487579164095,-0.74672335267067,0.241404637098312,1.52952928841114,1.71910785244666
3.92484779166989,-0.463293607234955,0.358175287842751,1.63230404376984,1.73417040530433
3.93482079159003,-0.248360484838486,0.47573063492775,1.73637805044651,1.81741885692605
3.94479279161897,-0.147279083132744,0.602584809064865,1.75551350221038,1.86188808387806
3.95476579165552,-0.131944175362587,0.739414333105087,1.59537419915199,1.76333821393776
3.96473779168446,-0.0877526736259461,0.821709215641022,1.30733509361744,1.54661941465947
3.97471079160459,0.0783164370059967,0.928962938189507,1.0609439510107,1.41234120240868
3.98468279163353,0.38946315407753,1.02375156641006,0.695377197861672,1.29741984932289
3.99465579167008,0.82035383105278,1.0138007748127,0.197406020388007,1.31899262925129
4.00462779169902,1.20951702296734,0.792966642379761,-0.000181994587182999,1.44628059445491
4.01460079161916,1.39242319107056,0.447917768955231,0.0799402087926865,1.46487648208262
4.0245727916481,1.30979150891304,0.0772896659374237,-0.00759904146194458,1.31209193073982
4.03454579168465,1.1709651607275,-0.276260474324226,-0.33946419775486,1.25008607658384
4.04451779159717,0.881315732002258,-0.616180170178413,-1.23910451889038,1.64066310689621
4.05449079163373,0.27918525159359,-0.772667448520661,-2.26677138090134,2.41106032358881
4.06446279166266,-0.414668746590614,-0.615559780597687,-2.25518863141537,2.37418191724089
4.07443579169922,-0.756567724943161,-0.383306035995483,-1.5789546328783,1.79232139203439
4.08440779161174,-0.983685860037804,-0.187941790223122,-1.17975944615901,1.54751166023135
4.09438079164829,-1.258530138731,0.0347447401285172,-1.07951010324061,1.65844727684043
4.10435279167723,-1.48394848823547,0.389895848035812,-0.746390061378479,1.70622976523576
4.11432579159737,-1.61135756313801,0.827725415825844,-0.307491622567177,1.83743126626144
4.1242977916263,-1.66364161133766,1.25871666491032,-0.100664495229721,2.08858909173082
4.13427079166286,-1.66497243762016,1.73682770133019,-0.415466379895806,2.44158063454117
4.1442427916918,-1.23872444987297,2.27528609633446,-2.1002210444212,3.33501027259522
4.15421579161193,-0.463402365446091,2.8309668803215,-3.68815875470638,4.67243300965307
4.16418779164087,-0.554618929624558,3.12585249066353,-1.65304353296757,3.57926093940791
4.17416079167742,-1.20463927567005,3.3961090439558,1.33660625517368,3.84333562212496
4.18413279158995,-1.41033730566502,3.87679636359215,2.7969454407692,4.98412531535387
4.1941057916265,-1.01514095664024,4.54094709098339,1.90513688027859,5.02794771030454
4.20407779165544,-0.254664368033409,5.23998932361603,0.0827351778745651,5.24682638950573
4.21405079169199,0.23986857354641,5.84087259292603,-1.17657264053822,5.96302379316339
4.22402279160451,0.810646868348122,6.27756487727165,-2.1581675362587,6.68749999985632
4.23399579164106,0.980957549214363,6.39625926196575,-1.7062549495697,6.69221310274669
4.24396779167,0.967267463207245,6.32265158772469,-0.460407421588898,6.41276106205361
4.25394079159014,1.0927311694622,6.19100328147411,0.531294386386871,6.30910903099191
4.26391279161908,1.30111950337887,5.94931622385979,0.57734120965004,6.11723780524464
4.27388579165563,1.21575190901756,5.50914016842842,0.253946914672852,5.64740357466537
4.28385779168457,-0.182270575761795,4.07653608083725,-0.0155489158630371,4.08063852233213
4.29383079160471,-2.20646612226963,2.57463488638401,0.556316961050034,3.43609169086931
4.30380279163364,-2.56473847389221,1.7101532882452,1.75234270334244,3.54587262302473
4.3137757916702,-1.86956826746464,0.657945662140846,1.35202243924141,2.39919625651029
4.32374779169913,-0.670449348092079,-0.458851477503777,0.332705401182175,0.877917929387642
4.33372079161927,0.759075595736504,-1.2891397279501,0.194152081422508,1.50856621629369
4.34369279164821,2.23031516075134,-1.59167057275772,0.860808450356126,2.8720571228067
4.35366579168476,3.07334566354752,-1.57690927684307,1.37985401630402,3.71968997919859
4.36363779159728,3.38384100079536,-1.71391070902348,1.71120520234108,4.16126099658364
4.37361079163384,3.88121451973915,-1.87949976325035,1.6413648891449,4.61415476632609
4.38358279166278,4.17500377714634,-2.02315328031778,2.10693540215492,5.09538835847676
4.39355579169933,3.86747180879116,-2.34583976984024,3.09309989690781,5.47974172656062
4.40352779161185,2.90795132160187,-2.99103265464306,2.90265725255013,5.08211337493852
4.4135007916484,1.4569524782896,-3.3047164785862,3.49398149371147,5.02511375057636
4.42347279167734,0.484663426280022,-3.4971340200305,4.1270115852356,5.43112047514111
4.43344579159748,0.309410678744316,-3.85646296352148,4.40811413884163,5.86510970214449
4.44341779162642,1.07041527092457,-4.45732342869043,4.72994254946709,6.58679569452707
4.45339079166297,2.52628893792629,-5.26937392115593,5.04723469018936,7.72159409297704
4.46336279169191,4.32663962066174,-6.49112916648388,4.61363909125328,9.06312495375618
4.47333579161204,6.50739261209965,-8.04154237031937,2.8031604462862,10.7177549323202
4.48330779164098,9.04190273523331,-9.95058577537537,-0.267955747023225,13.4477493518018
4.49328079167754,11.2480572009087,-12.1444868159294,-3.28996453821659,16.8769433689848
4.50325279159006,12.8150244569778,-14.5765823721886,-5.17863682866097,20.0878043819951
4.51322579162661,13.8990093612671,-17.3128664588928,-7.45414804279804,23.4196953287611
4.52319779165555,13.7199898374081,-19.4718385720253,-8.69309468686581,25.3566660613813
4.5331707916921,11.8275034081936,-20.0118570041657,-7.762363550663,24.5075201829697
4.54314279160462,11.0005527484417,-20.0427677249908,-7.37872656226158,24.0243689725622
4.55311579164118,11.9946928453445,-18.391643832922,-3.45633068740368,22.2277178574838
4.56308779167011,13.0995850539207,-16.3761191225052,0.0324536548554897,20.9708716876313
4.57306079159025,13.5970380949974,-15.2032214570045,0.27469502851367,20.3983539773734
4.58303279161919,13.1273371088505,-14.6398539233208,-1.81191121280193,19.7467801098977
4.59300579165574,12.8303465008736,-13.5237338912487,-1.17276917293668,18.6784516817315
4.60297779168468,12.4103386616707,-11.3618697452545,1.51339214265347,16.8937546324946
4.61295079160482,10.3500207710266,-8.09752712130547,1.80164116322994,13.2641918834886
4.62292279163376,7.92130139708519,-4.76003992259502,1.36724215686321,9.34207402045532
4.63289579167031,6.84306664466858,-2.66368388772011,1.50845650792122,7.49654680458711
4.64286779169925,5.55149856805801,-0.863538442254067,1.20476250573993,5.74598013289617
4.65284079161938,3.40720121204853,1.17072484016418,0.458795344233513,3.63181909222538
4.66281279164832,1.90482756257057,2.94808193206787,0.0307598626613617,3.51005716341836
4.67278579168487,0.509897377789021,4.62153692543507,-0.0708998286724091,4.6501210387195
4.6827577915974,-0.392063410878182,5.85927202641964,0.055849534124136,5.87264008502096
4.69273079163395,-1.02655676811934,6.78924536347389,-0.516971193104982,6.8858500287273
4.70270279166289,-1.60951393604279,8.04114125132561,-1.76169371679425,8.38773226121809
4.71267579169944,-2.04739612877369,9.5615488833189,-2.95751407563686,10.2157690588523
4.72264779161196,-2.38876944243908,10.8678466808796,-3.12898659825325,11.5588437164054
4.73262079164852,-2.57153352320194,11.604207597971,-1.58379378855228,11.9907806836092
4.74259279167745,-2.71459617912769,12.1318930828571,-0.168561632484198,12.4330316179746
4.75256579159759,-2.92325056135654,12.8104788315296,-0.19599033638835,13.1412394373399
4.76253779162653,-3.02533709943295,13.3149426841736,-0.739419595599175,13.6743228200298
4.77251079166308,-3.01058048129082,13.5497329509258,-0.502653993219137,13.8892591203647
4.78248279169202,-3.00247273206711,13.6909677672386,-0.399207538962364,14.0220115379191
4.79245629161596,-3.15162584781647,13.5062904775143,-0.558565361648798,13.8803682663988
4.8024282916449,-3.48232682347298,13.2484259283543,-0.700351424217224,13.716336311201
4.81240129168145,-3.72589025259018,13.481795321703,-0.688880941271782,14.0041286848517
4.82237329159398,-4.0205454826355,14.0397530114651,-0.754749971777201,14.6235802087171
4.83234629163053,-4.34078608185053,14.1102856349945,-0.921378368586302,14.7916031114825
4.84231829165947,-4.57923875212669,14.1415471887589,-1.12989534124732,14.9073622054019
4.85229129169602,-5.0595313847065,14.045299680233,-1.86011682808399,15.0442459284108
4.86226329160854,-5.88125229477882,13.8945116829872,-4.27907719910145,15.6830190058987
4.8722362916451,-7.56295653998852,13.8907542622089,-8.84135610222817,18.1196286751478
4.88220829167403,-8.62747723281384,13.4575574433804,-9.80965033650398,18.7554913417131
4.89218129159417,-7.99868227958679,12.5647121715546,-5.00265902638435,15.7123361566017
4.90215329162311,-7.08082554280758,11.4328736543655,-1.43254035294056,13.5240845245497
4.91212629165966,-6.02836707115173,10.7390056228638,0.302842464856803,12.319056979776
4.9220982916886,-5.36086647391319,9.88270661830902,0.667475454211235,11.2628727657143
4.93207129160874,-4.95358334541321,9.02568606734276,0.604354176521301,10.3134010353937
4.94204329163767,-4.77713893532753,8.16873802185059,0.742885240316391,9.49216602032063
4.95201629167423,-4.77085405558348,7.61335895419121,0.880520510673523,9.02771285291892
4.96198829158675,-4.95098952054978,7.57117129325867,0.595156506299973,9.06582281160673
4.9719612916233,-5.05261646747589,7.47235802650452,0.315775372982025,9.02578427228665
4.98193329165224,-5.07321153044701,7.26102971255779,0.164042538776994,8.85928539295557
4.99190629168879,-5.12010210692883,7.12147947907448,-0.112958850860596,8.77175440024649
5.00187829160132,-5.17923909187317,7.05002591907978,-0.304897212982178,8.75330482394896
5.01185129163787,-5.22538882613182,6.95228795528412,-0.326069980859756,8.70317860496209
5.02182329166681,-5.31164929032326,6.84765320062637,-0.277808232307434,8.67070642758582
5.03179629158694,-5.46238349318504,6.67782900810242,-0.25716756105423,8.6311742447093
5.04176829161588,-5.63464363574982,6.46226380169392,-0.271862746886909,8.57811003063754
5.05174129165243,-5.7188692688942,6.08699593305588,-0.510354410782457,8.36764284780047
5.06171329168137,-5.69213229060173,5.68024314701557,-0.779062036648393,8.07913794162936
5.07168629160151,-5.55039519846439,5.43833623409271,-0.767656457796693,7.808436738002
5.08165829163045,-5.04101500689983,5.41666996121407,-0.165204892158508,7.40131329055197
5.091631291667,-4.5516761469841,5.76196383297443,1.67305679798126,7.53107575375529
5.10160329169594,-4.78966367125511,6.23077838122845,3.19915903329849,8.48516916979621
5.11157629161608,-5.03754585385323,6.61044803380966,3.5267878818512,9.02846189563562
5.12154829164501,-5.02426858127117,6.95144946455956,3.3161337518692,9.19579618604937
5.13152129168157,-4.99800873577595,7.3130705165863,3.29936627626419,9.45234941844651
5.14149329159409,-4.90215532958508,7.57432937443257,2.73009890198708,9.42629473135667
5.15146629163064,-2.74972449660301,7.55574166059494,-5.94578801393509,10.0001305969234
5.16143829165958,-0.452792007923126,6.38441280305386,-8.64156726837158,10.7537171385539
5.17141129169613,-2.60556197941303,5.94666568100452,5.37966995000839,8.43164484079015
5.18138329160865,-1.08755579888821,5.66932581067085,4.98411984443665,7.62662988396194
5.19135629164521,-0.432591047286987,4.94993468284607,4.67144934296608,6.81992869042877
5.20132829167415,0.329650231003761,1.52084675788879,4.83795699477196,5.08207359441445
5.21130129159428,7.91392338037491,-7.83692432105541,5.75088043570519,12.5347593463206
5.22127329162322,18.5808024287224,-17.5197140514851,6.6654562997818,26.3934633389656
5.23124629165977,28.6819633626938,-24.4524173426628,5.88695566892624,38.1475029757725
5.24121829168871,40.3109619855881,-29.3434612083435,4.48188144207001,50.0609591712929
5.25119129160885,49.916786570549,-29.001665725708,0.222355724126101,57.7306819504456
5.26116329163779,48.9255291509628,-23.4482212042809,-6.36337744474411,54.6261755283205
5.27113629167434,29.7623229932785,-11.9312002694607,-2.82440045714378,32.1889211960968
5.28110829158686,10.7715781223774,-4.46745109856129,-0.146498443298042,11.6621814579608
5.29108129162341,4.63970305502415,-1.61930451393127,1.78040349125862,5.22674163694022
5.30105329165235,2.57453665316105,-1.75708888828754,0.762713660225272,3.2089456940415
5.3110262916889,-0.88923870921135,-1.91590979039669,-6.02734322369099,6.38673016050243
5.32099829160143,-4.37720692634583,-2.38408289909363,-20.0283601856232,20.6392587917022
5.33097129163798,-1.25437861561775,-3.72470385253429,-7.47541495084763,8.44563278788269
5.34094329166692,0.82246467590332,-4.66037647068501,1.80176161587238,5.06378335951038
5.35091629158706,-0.502509128451347,-5.59323891699314,1.27868841469288,5.75950354358892
5.36088829161599,-1.8951410651207,-6.17964155673981,1.62987335622311,6.66603454715158
5.37086129165255,-2.68168687999249,-6.61473462760449,1.67537697315216,7.33164693081453
5.38083329168148,-2.2474907720089,-7.35406417608261,1.30992716431618,7.80060150578276
5.39080629160162,-0.172609806060791,-7.91520450532436,0.571824946403504,7.93771001458134
5.40077829163056,2.94340591371059,-7.01021573603153,0.63214248418808,7.62930974327862
5.41075129166711,5.52746300339699,-5.26318873643875,1.77431420087814,7.83595519466109
5.42072429158725,6.88873281419277,-3.48970308601856,2.37476126790047,8.07911867058678
5.43069629161619,7.32499181985855,-1.91124020397663,1.87503249049187,7.79898013324123
5.44066929165274,7.32539761662483,-0.654543752074242,0.23774661898613,7.35842382714339
5.45064129168168,7.0182164812088,0.343118122816086,-1.46299791455269,7.17728747656809
5.46061429160181,6.13480978488922,0.903981878757477,-1.51745069503784,6.38402153393653
5.47058629163075,4.26354348599911,0.875281990170479,-0.827082222104073,4.43034836344083
5.48055929166731,1.85914268195629,0.463513462543488,-0.831110368967056,2.08854032454134
5.49053129169624,-0.13088349044323,0.072924719452858,-0.920959269404411,0.93306724231418
5.50050429161638,-1.61006298959255,-0.133796573281288,-0.739211434721947,1.7766929669195
5.51047629164532,-2.65251102805138,-0.159518474936485,-0.449167903661728,2.69499771863727
5.52044929168187,-3.47337824463844,0.154978111982346,-0.0589919739961624,3.47733442431372
5.53042129159439,-4.10744095444679,0.686720395088196,0.418325010538101,4.18540940766116
5.54039429163095,-4.34813281595707,1.03852163314819,0.613037876486778,4.51227233284151
5.55036629165988,-4.49356768727303,1.16764452695847,0.246620353460312,4.64934037258848
5.56033929169644,-4.70596955001354,1.18582118153572,-0.530053607225418,4.88193384907724
5.57031129160896,-4.98082201480866,1.24964003205299,-1.18989610612392,5.27124661690959
5.58028429164551,-5.20669937074185,1.40913219451904,-1.39653802290559,5.57186596467778
5.59025629167445,-5.02904984951019,1.6139689296484,-1.00716316178441,5.37685928114029
5.60022929159459,-4.7312529104948,1.69239704847336,-0.473700481653214,5.04711343433703
5.61020129162353,-4.2806343126297,1.71608294963837,-0.0577950489521027,4.61216988804463
5.62017429166008,-3.86880731284618,1.82738236069679,0.140744856186211,4.28098183021848
5.63014629168902,-3.60062944471836,1.92340241253376,0.103803317137063,4.0834769948369
5.64011929160915,-3.16720224559307,1.8534287828207,0.0696812323853374,3.67031657921013
5.65009129163809,-2.48919478654861,1.5696388489008,0.0970895075798035,2.94436464688759
5.66006429167464,-1.80780237436295,1.31407517910004,0.123167504668236,2.23832822331429
5.67003629158717,-1.35458761274815,1.2459165251255,-0.0144654268026352,1.84049581275376
5.68000929162372,-1.20565493702889,1.40429596245289,-0.324678891710937,1.87911345055754
5.68998129165266,-1.17607036471367,1.71470534563065,-0.671418231725693,2.18498475211744
5.69995429168921,-1.0565526920557,1.99602249205112,-0.884965052381158,2.42560766073166
5.70992629160173,-0.903026443719864,2.22877734303474,-0.995232356786728,2.60257423465261
5.71989929163829,-0.652315962910652,2.30144186139107,-1.14811014890671,2.65335781055888
5.72987129166722,-0.115129337310791,2.02618710815907,-1.25752090930939,2.38747728762598
5.73984429158736,0.746042152047157,1.25096267223358,-0.910772761926055,1.71784560534972
5.7498162916163,1.4447510933876,0.279356575012207,-0.659709767103195,1.61262605543213
5.75978929165285,1.76382195711136,-0.534292838573456,-1.04078392088413,2.11654622054657
5.76976129168179,1.63392723083496,-1.06574393033981,-1.71986785233021,2.60066794308675
5.77973429160193,1.23524944961071,-1.20875103771687,-1.99973547399044,2.64307817513613
5.78970629163086,0.964044477939606,-1.0165448731184,-1.73556119441986,2.23045239673149
5.79967879166361,0.845160058736801,-0.656088586449623,-1.36024070084095,1.73060755874281
5.80965079169255,0.627517336606979,-0.406935219168663,-1.03383216619492,1.27600283236419
5.81962379161269,0.251297541260719,-0.283974705934525,-0.738592872396112,0.830247866006665
5.82959579164162,-0.142429402470589,-0.231962553262711,-0.612526756748557,0.670284856264254
5.83956879167818,-0.425901247859001,-0.124334608912468,-0.497509174346924,0.666608090605439
5.8495407915907,-0.491766039133072,0.00715056002140045,-0.365196624398232,0.612579417075952
5.85951379162725,-0.369727631807327,0.101411184668541,-0.24292783677578,0.453868575667331
5.86948579165619,-0.0926859694719315,0.0726136475801468,-0.144434485808015,0.186345784611488
5.87945879169274,0.178511400818825,-0.012449306845665,-0.016396689042449,0.179694621162659
5.88943079160526,0.436063708662987,-0.0745519995689392,0.0772569946199656,0.449085962673467
5.89940379164182,0.644436839818955,-0.106331616640091,0.139356690645218,0.667851435905264
5.90937579167075,0.779473607540131,-0.0558648830652237,0.169049948081374,0.799548544466083
5.91934879159089,0.819943356513977,0.0630633902549744,0.171475446224213,0.840052336309858
5.92932079161983,0.732846740484238,0.263947992324829,0.125054985880852,0.788905341079866
5.93929379165638,0.606026480197907,0.504169737696648,0.0131317134574056,0.788433675719459
5.94926579168532,0.460220895409584,0.740141142010689,-0.107581203170121,0.878171906829191
5.95923879160546,0.283863608837128,0.951729657053948,-0.230837000794709,1.01963405664678
5.9692107916344,0.120833880901337,1.13569066286087,-0.280369312763214,1.17601065472314
5.97918379167095,-0.0155834144353867,1.2508884125948,-0.288019225001335,1.28371326141774
5.98915679159109,-0.088404638171196,1.29367073535919,-0.249184357523918,1.32041364564654
5.99912879162002,-0.189658532738686,1.27247750222683,-0.22189894694835,1.3055299672435
6.00910179165658,-0.266873939037323,1.23705974757671,-0.18128539301455,1.27843768410208
6.01907379168551,-0.280882113575935,1.20471879780293,-0.0963387250900269,1.24077527919385
6.02904679160565,-0.199833857417107,1.13225542366505,0.00298613648861647,1.14975859727172
6.03901879163459,-0.0577447628974915,0.961333124041557,0.118835266046226,0.97036985396181
6.04899179167114,0.110058631896973,0.777766805291176,0.273478369116783,0.831759895788833
6.05896379170008,0.241984096169472,0.616289513111115,0.434013053588569,0.791666847515396
6.06893679162022,0.30372835457325,0.390291119813919,0.573150510191917,0.757020197161629
6.07890879164916,0.309444007873535,0.168954126834869,0.705005223155022,0.788247077799361
6.08888179168571,0.230997177958488,0.0301271939277649,0.769409379959107,0.803901821124821
6.09885379159823,0.0338454383611679,-0.0462888979911804,0.733905086517334,0.736141869337095
6.10882679163478,-0.0995985478162766,-0.0172609806060791,0.604155955910683,0.612553859869437
6.11879879166372,-0.271271629929543,0.0862066698074341,0.456781051531434,0.538208896398119
6.12877179170027,-0.398823376893997,0.165315989255905,0.31438724398613,0.534068161793964
6.1387437916128,-0.547739680409431,0.19762536406517,0.094695657491684,0.589950684010706
6.14871679164935,-0.687561809420586,0.195944874286652,-0.125872353538871,0.725933526514884
6.15868879167829,-0.80249760389328,0.178383931517601,-0.272484927177429,0.86606654872303
6.16866179159842,-0.886693416237831,0.177080587148666,-0.316636010035873,0.958040245290285
6.17863379162736,-1.02012103021145,0.143913425803185,-0.329173134751618,1.0815326823764
6.18860679166392,-1.25213796257973,0.0800448739528656,-0.364179793596268,1.30647754716385
6.19857879169285,-1.53095133125782,0.0749841088056564,-0.356890069842339,1.57378687159524
6.20855179161299,-1.81477634847164,0.0719476497173309,-0.336814824342728,1.84716915445471
6.21852379164193,-1.93476589143276,0.163640761971474,-0.264859025068581,1.95965498412106
6.22849679167848,-2.07862376868725,0.288539627194405,-0.191301052160561,2.10725603113879
6.238468791591,-2.20416173458099,0.501484696269035,-0.117979891486466,2.26356689929375
6.24844179162756,-2.28467087745667,0.639428114891052,-0.0883210960775614,2.3741082427775
6.25841379165649,-2.40283491969109,0.752461225390434,-7.25237466394901E-05,2.51789863820263
6.26838679169305,-2.58109664440155,0.916377975940704,0.247284597158432,2.75008329956057
6.27835879160557,-2.5896277320385,1.19511123776436,0.632329595088959,2.92135300468788
6.28833179164212,-2.66816928684711,1.57321851432323,0.983219836950302,3.24974846485943
6.29830379167106,-2.77846882402897,2.2616790407896,1.57684612691402,3.9142719371055
6.3082767915912,-2.4073185646534,3.21528448462486,2.98723021030426,5.00567491135298
6.31824879162014,-1.70262032032013,4.11198365628719,3.26558106422424,5.52008561815485
6.32822179165669,-1.29232353687286,4.89776407063007,2.77569256603718,5.77604209097064
6.33819379168563,-0.663835562467575,5.68859180152416,2.48500174820423,6.24307520593358
6.34816679160576,0.0150764608383179,6.73402308940888,-1.45473404467106,6.88937917443134
6.3581387916347,0.995518870353699,7.84924498915672,-6.00276445269585,9.93150974402085
6.36811179167125,1.50393310189247,7.69941768944264,-2.28207208245993,8.17011019026139
6.37808379170019,1.92534310340881,7.8765117251873,-0.227000752240419,8.11159123503981
6.38805679162033,2.77789638161659,8.24955121994019,-1.07191975951195,8.77045127734299
6.39802879164927,3.73445583879948,8.36516353726387,-2.88601315319538,9.60474847861875
6.40800179168582,4.74638199627399,8.26498377621174,-4.16311346411705,10.4004621335165
6.41797479160596,4.79733580291271,7.54588851749897,-3.34612295150757,9.54732439644934
6.4279467916349,3.32607460319996,5.49762524664402,-1.78193078398705,6.66797817464261
6.43791979167145,0.957052962183952,2.58384658992291,-1.51739514648914,3.14558446131559
6.44789179170039,-0.173230195641518,0.205574069023132,-1.39008664369583,1.41584260266396
6.45786479162052,-0.389439180493355,-1.69001664698124,-0.00445104673504829,1.73431224241602
6.46783679164946,0.194218776226044,-3.55951650202274,1.62184045135975,3.91640716867868
6.47780979168601,0.978818053007126,-5.33233615458012,2.3576733648777,5.91189625600692
6.48778179159854,1.56808115065098,-6.84907933652401,2.37983080387116,7.41837993823996
6.49775479163509,2.06828589141369,-7.86712577462196,2.44800919219852,8.49483510654742
6.50772679166403,3.02712050020695,-9.17790897130966,2.84785305440426,10.0751048941388
6.51769979170058,4.33721840322018,-10.3764829301834,3.48884062170982,11.7751802687395
6.5276717916131,5.66131395578384,-11.355690407753,4.11652986645699,13.339715082569
6.53764479164965,7.23419216215611,-12.0042378401756,4.59565188646317,14.7497552055638
6.54761679167859,8.68315500497818,-12.6537114715576,4.73608037173748,16.0606367287684
6.55758979159873,9.91860501408577,-12.8317100715637,4.63245309233666,16.8668648669163
6.56756179162767,10.996576641798,-12.7838166975975,4.25160347163677,17.3904226307685
6.57753479166422,11.6846781492233,-12.6349231982231,3.45541910648346,17.5531452702182
6.58750679169316,11.5405127084255,-12.7623808050156,2.21957616448402,17.3490148347249
6.5974797916133,10.5627682042122,-13.3349331450462,0.710123291015625,17.0263557230316
6.60745179164223,10.2084655272961,-14.1353701901436,-2.13147558152676,17.5660082827328
6.61742479167879,10.8591261434555,-16.0919900500774,-7.37812079071999,20.7679905328783
6.62739679159131,11.4935209751129,-16.9546917557716,-5.16959878742695,21.1255141608804
6.63736979162786,13.175197738409,-17.3071747791767,-1.40591681063175,21.7968056458181
6.6473417916568,15.3363882851601,-18.3426289629936,-0.921193742752075,23.9270859240931
6.65731479169335,17.2778463149071,-19.3947629141808,-0.645915015935898,25.9826482096541
6.66728679160588,16.9834577178955,-19.3397172260284,-1.34501762107015,25.7734664110064
6.67725979164243,12.5519067692757,-16.9350638222694,-3.85768123090267,21.4296162982025
6.68723179167137,10.1017854166031,-12.6933497464657,-3.96836493015289,16.7007519773231
6.6972047915915,10.2092876458168,-8.07076909303665,-0.432593970894814,13.0212904710631
6.70717679162044,7.96426966130734,-3.74224842309952,1.53661026656628,8.93281509992948
6.71714979165699,4.72891168534756,-0.0178340077400208,1.71679762557149,5.03093608256124
6.72712179168593,2.38113941073418,2.69264865517616,1.05776832818985,3.74687276401202
6.73709479160607,0.217298321127892,4.35673699378967,-0.0425000484287739,4.36235968800567
6.74706679163501,-1.11689244925976,5.7706644898653,-0.602113377302885,5.90851571182923
6.75703979167156,-1.55076432913542,6.72174978375435,-0.207110571116209,6.90142629813494
6.7670117917005,-1.77925422102213,8.16592317223549,-0.20493964612484,8.36002674017442
6.77698479162063,-2.02307346582413,9.87531807661057,0.75117067180574,10.1083624163627
6.78695679164957,-2.30545860618353,11.116833987236,1.59468890547752,11.4648231556289
6.79692970833276,-2.21348073452711,11.7911559462547,1.12250563010573,12.0495176003291
6.80690270836931,-2.11812346458435,12.5046308612824,0.711459891423583,12.7026932248741
6.81687470828183,-2.09395721465349,13.4744710993767,0.859869241341949,13.6632866959946
6.82684770831838,-2.09282051593065,14.3031583821774,1.10864436686039,14.4979077714587
6.83681970834732,-1.8446126434207,15.1928449881077,1.50914530992508,15.3786427945838
6.84679270826746,-1.40533793628216,16.0764095592499,1.52373762130737,16.2094939887241
6.8567647082964,-0.927592350840569,17.0096859884262,2.01733018442988,17.1539927150274
6.86673770833295,-1.18354983061552,17.6634210705757,2.48744179129601,17.8769292884179
6.87670970836189,-1.78529556423426,17.6507536625862,1.96206040173769,17.8489794142142
6.88668270828202,-2.40798383161426,16.9003337001801,1.23166437551379,17.115392558883
6.89665470831096,-2.98676652610302,16.1410715782642,0.443402695208788,16.4210709737891
6.90662770834751,-3.42286034792662,15.7895849204063,-0.427352088242769,16.1619799135953
6.91659970826004,-3.39359620302916,14.8719345903397,-1.44529649242759,15.3225264104709
6.92657270829659,-2.83270935058594,13.4298919272423,-2.5943604683876,13.9684267432749
6.93654470832553,-2.27054795131087,12.3572061824799,-3.82455967783928,13.1332855510293
6.94651770836208,-2.21795414686203,11.5241124379635,-5.13221285998821,12.8087507946964
6.9564897082746,-2.73443402767181,10.6899930918217,-6.6644400537014,12.8906106521089
6.96646270831116,-3.4166976749897,9.95509982585907,-7.58062507152557,12.9708793849971
6.97643470834009,-3.67376524865627,9.36753417491913,-6.92164971470833,12.2129637022974
6.98640770826023,-2.97381728231907,9.30461696505547,-5.15842943608761,11.0466682914856
6.99637970828917,-2.04367613017559,9.54017497122288,-3.51646228373051,10.370971873431
7.00635270832572,-1.58741204559803,9.66600412845612,-2.51997336030006,10.1144341685762
7.01632470835466,-1.38456365615129,9.57273928463459,-1.90031468153,9.85725873751724
7.0262977082748,-1.27918922871351,9.36021989285946,-1.43815309524536,9.55606225654178
7.03626970830374,-1.3531161609292,9.03078308522701,-1.16985126614571,9.20622172567513
7.04624270834029,-1.54294221639633,8.72135837316513,-1.09372402667999,8.92406828766189
7.05621470836923,-1.86548632621765,8.62888641178608,-1.15747972726822,8.90379016261325
7.06618770828936,-2.17589687883854,8.50964940547943,-1.22609621822834,8.86859471212151
7.07616070832592,-2.55227659553289,8.36928114652634,-1.20403511211276,8.83225244662462
7.08613270835485,-3.00433185428381,8.28660034775734,-1.19858916163445,8.89552534662816
7.09610570827499,-3.30150811135769,8.2425181889534,-1.3000791375339,8.9738100976363
7.10607770830393,-3.55168181777,8.13469319343567,-1.38978843569756,8.98438584333984
7.11605070834048,-3.83000752866268,8.06082882642746,-1.37558320999146,9.02984762917886
7.12602270836942,-4.23947517693043,8.06329985976219,-1.37613869547844,9.2132357026966
7.13599570828956,-4.59280341535807,8.0761438536644,-1.40619279921055,9.39655899495967
7.14596770831849,-4.87199539124966,8.04353334724903,-1.31741627812386,9.49580715108151
7.15594070835505,-5.13367641806603,7.99293739020825,-1.11184279382229,9.56440672950344
7.16591270826757,-5.27916157543659,7.84865617454052,-0.783836799860001,9.49133029741005
7.17588570830412,-5.30176047921181,7.57983452796936,-0.545854538083077,9.26609479916295
7.18585770833306,-5.32399276256561,7.2506216686964,-0.475851672291756,9.00793252264046
7.19583070836961,-5.23699788808823,7.07466667056084,-0.478263721838594,8.81508885757891
7.20580270828214,-5.16353113174439,6.89841580331326,-0.401750493049622,8.62621572896025
7.21577570831869,-5.13282447874546,6.71274741053581,-0.34162467084825,8.45716100964124
7.22574770834763,-5.18510618805885,6.52925827503204,-0.58786027751863,8.35835626839422
7.23572070826776,-5.23501860558987,6.14057981729508,-1.46893342316151,8.2018233152833
7.2456927082967,-4.78009762644768,5.79299559116364,-2.24434862449765,7.83870091187925
7.25566570833325,-4.58897904396057,5.9764999294281,-0.332746331691742,7.54241341969649
7.26563770836219,-4.32528482079506,5.73972160935402,0.939486026018858,7.24811195601795
7.27561070828233,-3.70093725979328,5.23331180334091,1.15786571659148,6.51345853211421
7.28558270831127,-2.54856858372688,3.89696691870689,1.90544035077095,5.03112869262968
7.29555570834782,-0.838704147934914,-0.44074382007122,3.3003082627058,3.43361535288657
7.30552770826034,5.06844721913338,-9.12934550642967,6.74632855474949,12.4316956026737
7.3155007082969,18.1333957064152,-20.6250755596161,10.696896314621,29.4726546556475
7.32547270832583,37.5392905497551,-32.7553208971024,14.0582454156876,51.7662404103175
7.33544570836239,52.1699479722977,-38.5599968862534,16.5090894842148,66.941219490669
7.34541770827491,60.1885435295105,-35.6552685499191,13.8671081221104,71.3179895625286
7.35539070831146,58.3839992237091,-27.4294617033005,6.70726856946945,64.8540992254914
7.36536370834801,32.6718975019455,-15.8268503952026,-15.4252601158619,39.4446540034484
7.37533570826054,-20.8373669099808,-8.38150592029095,-55.662064204216,60.022586521303
7.38530870829709,20.5838714003563,-2.63530968904495,-3.27965180397034,21.0094439464462
7.39528070832603,20.2174638175964,-1.08354110062122,8.78040063321591,22.0684240446013
7.40525370836258,3.93630873978138,-1.57280920922756,4.42100607991219,6.12483061497466
7.4152257082751,-1.47646229803562,-2.32869456410408,-0.407843291759491,2.78730971387138
7.42519870831166,-4.31516913771629,-3.30332951903343,-14.3051405882835,15.3026049367085
7.43517070834059,-9.9576819562912,-7.2493346965313,-52.941429605484,54.3553424435667
7.44514370826073,-3.33855782389641,-5.82555054903031,-5.76730000197887,8.85125736015131
7.45511570828967,-0.665397938489914,-4.29620603263378,6.30045848071575,7.65479704228718
7.46508870832622,-1.36194399476051,-5.04528113543987,1.96322005078197,5.58247132982177
7.47506070835516,-1.42490915179253,-5.66343240201473,2.403627217412,6.31524001628887
7.4850337082753,-1.26469427347183,-6.26507756352425,3.10724431157112,7.10673030965144
7.49500570830423,-0.448903024792671,-6.69883162200451,3.83314982235432,7.73103463879515
7.50497870834079,1.54299367189407,-6.36358034312725,3.17360377728939,7.27652012916656
7.51495070836972,3.8665760153532,-4.88770627498627,2.4381164342165,6.69212182045735
7.52492370828986,5.181917116642,-3.05448956251144,2.17269026577473,6.3955261302125
7.5348957083188,5.22650915265083,-1.44061711192131,2.37849880814552,5.92022230716492
7.54486870835535,4.39189688622952,-0.269763048291206,2.60080994725227,5.11133473206581
7.55484070826788,3.28891028523445,0.395544258356094,2.56794099390507,4.1913848633617
7.56481370830443,2.43056650936604,0.821972925066948,2.38111251354218,3.50042709510455
7.57478570833337,1.88957802414894,1.2280082577467,2.13838465154171,3.10663778197424
7.5847587082535,1.38224260389805,1.67325267970562,1.89567959368229,2.8816610258801
7.59473070828244,0.757561166882515,2.18515360593796,1.70332666397095,2.87230167762832
7.60470370831899,0.104454075694084,2.65721160471439,1.41108341038227,3.0104552076412
7.61467670835555,-0.502667003273964,3.05990700781345,1.02981929518282,3.26745050358489
7.62464870826807,-1.05292040169239,3.43313068985939,0.447223704457283,3.61870650202292
7.63462170830462,-1.75589488685131,3.72253102719784,-0.453542132601142,4.140785501347
7.64459370833356,-3.00012507498264,4.19354354381561,-2.53208879113197,5.74439131375931
7.6545667082537,-4.36785255074501,4.76337108135223,-5.03914389789105,8.19516999136473
7.66453870828264,-3.77270481526852,4.78405092895031,-4.49901963114739,7.57374560936596
7.67451170831919,-2.26591417908669,4.55308532595635,-3.08500033378601,5.94829220128642
7.68448370834813,-1.51309159576893,4.57303251743317,-2.41401421129704,5.38790656888478
7.69445670826826,-1.38363248705864,4.79797841191292,-1.99562356576324,5.3775039857406
7.7044287082972,-1.43491900026798,5.09080229401589,-1.70305783823133,5.55658767000473
7.71440170833375,-1.49713571369648,5.19387584209442,-1.56543528556824,5.62746383743331
7.72437370836269,-1.49960323870182,5.04717154026032,-1.70321849048138,5.53386877840958
7.73434670828283,-1.27271577626467,4.52375744640827,-1.91325033053756,5.07392488202076
7.74431870831177,-0.468443250060082,3.59896883547306,-1.91288327157497,4.1025770154751
7.75429170834832,0.554202900230885,2.80423867285252,-1.65673122569919,3.30388464434712
7.76426370826084,1.2130659905076,2.32367940723896,-1.36210552409291,2.95403902203695
7.77423670829739,1.49452434718609,1.97663429439068,-1.12946118548512,2.72330107178968
7.78420870832633,1.61218611359596,1.78723830163479,-0.909153302460909,2.57292140165176
7.79418154165614,1.59423253029585,1.66575362563133,-0.773928692936897,2.43213447895227
7.80415354168508,1.51717412173748,1.57217069327831,-0.743230226039887,2.30779747234726
7.81412654160522,1.53536247074604,1.44454059362412,-0.708882584944367,2.22408407270065
7.82409854163416,1.60719668447971,1.29993485748768,-0.623987445607781,2.15922952661134
7.83407154167071,1.65576950490475,1.1201405775547,-0.500707162767649,2.06082392011155
7.84404454159085,1.72938361108303,1.01939305186272,-0.385922664999962,2.04422752447697
7.85401654161979,1.86583657443523,1.03476889014244,-0.25247341632843,2.1484495815493
7.86398954165634,1.94604926347733,1.00167248010635,-0.0538733214139938,2.18937384382915
7.87396154168528,1.79356206536293,1.03352050960064,0.269013983421028,2.08743815461684
7.88393454160541,1.45690453112125,1.06088606357574,0.688880941271782,1.92940586812064
7.89390654163435,1.0151450496912,0.959128139019013,1.0695668399334,1.7590962122794
7.9038795416709,0.601659779548645,0.78179495215416,1.24737715959549,1.59032940481548
7.91385154169984,0.363257687687874,0.527558015584946,1.23563536584377,1.39178603412886
7.92382454161998,0.23736771941185,0.201771039962769,1.09541153311729,1.13885091810685
7.93379654164892,0.131498032808304,-0.140453043580055,0.899255574345589,0.919608274253211
7.94376954168547,0.117230826616287,-0.520320332050324,0.789675829410553,0.952924042203439
7.95374154159799,0.129223465919495,-0.871173736453056,0.752115070223808,1.15815347086972
7.96371454163455,0.100486155152321,-1.16374677300453,0.713150979280472,1.36857164164119
7.97368654166348,0.0976292055845261,-1.32636017918587,0.630505848526955,1.47183572851719
7.98365954170004,0.118592058420181,-1.40375217139721,0.51762589853257,1.50084003339942
7.99363154161256,0.0829930400848389,-1.30258656978607,0.372922550439835,1.35745749293159
8.00360454164911,-0.0991360330581665,-1.07650631546974,0.167037409543991,1.09388998372045
8.01357654167805,-0.374900663495064,-0.825047391057015,-0.106905886307359,0.91251442372501
8.02354954159819,-0.662598876357079,-0.664005131721497,-0.284165398254991,0.980147978352026
8.03352154162712,-0.79334437251091,-0.457368623614311,-0.298114515915513,0.963043932466801
8.04349454166368,-1.04686385571957,-0.205819067358971,-0.404675197228789,1.14107293200422
8.05346654169262,-1.37594573736191,0.109928823709488,-0.528949799090624,1.47820800579775
8.06343954161275,-1.55702055752277,0.569037578701973,-0.562501634135842,1.75057843895354
8.07341154164169,-1.64726999223232,1.02330425441265,-0.653398940339685,2.04635778876645
8.08338454167824,-1.95499433398247,1.25695665299892,-0.736231255084276,2.43802775504808
8.09335754159838,-2.34443936169148,1.38302145302296,-0.723229971081019,2.81641720120438
8.10332954162732,-2.64223279237747,1.44268293321133,-0.747301642298698,3.10180397824821
8.11330254166387,-3.02510204136372,1.44546328425407,-0.772652830481529,3.4405811810275
8.12327454169281,-3.43505150020123,1.40510931015015,-0.755297198072076,3.78739816231682
8.13324754161295,-3.69875215530396,1.29451799690723,-0.729094655290246,3.98599088898296
8.14321954164188,-3.71900632560253,1.33538184821606,-0.697072378769517,4.01250079522235
8.15319254167844,-3.70921750187874,1.4986630064249,-0.559615996666253,4.03948701530217
8.16316454159096,-3.66253800988197,1.77011999309063,-0.028997621499002,4.06796636242509
8.17313754162751,-3.30913521945477,2.26228539705277,0.723926228284836,4.07337455954554
8.18310954165645,-2.82418411016464,2.86268334746361,1.2538798481226,4.2122661964173
8.193082541693,-2.2549138122797,3.54927510380745,1.59348028600216,4.49679546846359
8.20305454160553,-1.57314893245697,4.23815955340862,2.07511953234673,4.97422506902997
8.21302754164208,-0.903866688609123,4.9712378436327,2.7357046276331,5.74580372954004
8.22299954167102,-0.220479206442833,5.77218827426434,3.08399987518787,6.5481160484667
8.23297254159115,0.981472688913345,6.71656739652157,2.27196955561638,7.15803128609725
8.24294454162009,3.75770612239838,8.3614751136303,-4.34694290757179,10.1454686446639
8.25291754165664,6.20600606739521,9.41070416808129,-9.5238191395998,14.757336997287
8.26288954168558,4.0941677749157,8.03972388625145,-2.42464620351791,9.34228447161368
8.27286254160572,1.85188804149628,6.72602643728256,0.558937683105469,6.99866646489574
8.28283454163466,1.3518493616581,6.39742402732372,-0.0314074417948723,6.53877032089325
8.29280754167121,1.0728845500946,6.74535557806492,-1.38598920732737,6.96935213740783
8.30278054159135,0.41753914475441,7.32461350500584,-1.6578683629632,7.52149117157166
8.31275254162028,-0.391889748573303,7.43291680276394,-0.534177794605494,7.46238404855291
8.32272554165684,-1.19424994289875,7.11828982293606,0.397088946551085,7.22869023827289
8.33269754168578,-1.85486427426338,6.32400989592075,0.920534176826477,6.65439747913722
8.34267054160591,-2.46972238898277,4.33675062596798,1.11064002156258,5.11277379980505
8.35264254163485,-2.50639144778252,1.54072144389153,1.26778628110886,3.2036077649663
8.3626155416714,-1.79125943183899,-1.65317684948444,1.54574683338404,2.88633631455869
8.37258754170034,-0.332705401182175,-5.20375529766083,1.91356505692005,5.55441205790265
8.38256054162048,2.42129282534123,-9.39701700568199,2.66957086443901,10.0644521038846
8.39253254164942,7.14483150422573,-13.8835107314587,4.16876713693142,16.1610366900228
8.40250554168597,13.7061237502098,-17.7974135255814,5.98402412652969,23.2468127106384
8.41247754159849,20.5136276292801,-20.7074979114533,7.4124550563097,30.0758022042208
8.42245054163504,24.1368337583542,-23.1095925736427,6.92208357810974,34.1255806377053
8.43242254166398,21.2994606685638,-25.7020889496803,3.38927014052868,33.5522212861452
8.44239554170054,17.4062909317017,-25.3171223044395,-0.860721253752709,30.7355899057372
8.45236754161306,12.4324621868134,-22.2015269994736,-7.77831767857075,26.6078210878618
8.46234054164961,8.41496427297592,-16.3687796974182,-6.49421415746212,19.5172587732256
8.47231254167855,8.5765994399786,-12.2420721673965,-1.15519843608141,14.9920269587642
8.48228554159869,6.91457399904728,-10.08037525177,-0.639914749413729,12.2407021731319
8.49225754162762,6.0757733720541,-9.7040034288168,-0.312806741595268,11.4534079064983
8.50223054166418,8.25475524187088,-11.3938961148262,0.0325502800941467,14.0699293636955
8.51220254169311,12.31971149683,-13.8517872476578,0.271869069188833,18.539719903771
8.52217554161325,15.9370493602753,-15.7149791264534,0.345853304117918,22.3845867901261
8.5321485416498,19.1076505923271,-17.0857746362686,0.295975969880819,25.6342272724295
8.54212054167874,21.0736505556107,-17.5866611623764,0.127807270288467,27.4482373437452
8.55209354159888,21.1650565695763,-16.4910905849934,-0.0745425709336996,26.8313481746762
8.56206554162782,17.7595188903809,-12.7574703133106,-0.614623129740357,21.8753587765872
8.57203854166437,11.6183613681793,-7.23864306271076,-1.896017562747,13.8195208625038
8.58201054169331,7.67301926493645,-3.30034860849381,-2.57794499516487,8.74147161385132
8.59198354161345,5.5540444457531,-0.653656729459763,-2.77999962508678,6.24524416983448
8.60195554164238,2.2866001662612,2.29967658698559,-7.42982070207596,8.10674338992372
8.61192854167894,-1.84602971613407,6.20022492527962,-18.1559016394615,19.2740078649644
8.62190054159146,2.81559542745352,6.91299992859364,-5.51035054206848,9.27799055401045
8.63187354162801,3.9847371339798,7.03895129263401,4.74048624873161,9.37534933756631
8.64184554165695,3.02362795829773,8.82679770469666,5.05866599678993,10.6134247732255
8.6518185416935,2.57884225040674,10.5833550810814,4.73853093981743,11.879036475756
8.66179054160602,2.18470658630133,12.8577255034447,6.3961861717701,14.5260196039419
8.67176354164258,1.89654410451651,14.3819484436512,8.09932923316956,16.6143448442451
8.68173554167152,1.57733290761709,15.1152676391602,7.27186577260494,16.8475317693625
8.69170854159165,1.23837244749069,16.6403407645226,6.64934605121613,17.9624138129306
8.70168054162059,0.522892814576626,17.3705083107948,5.07730575084686,18.1048891064958
8.71165354165714,-0.173197451233864,17.4676060044765,2.60853353440762,17.6621545708577
8.72162554168608,0.622976388931275,18.3171234083176,2.04764405071735,18.4417449200215
8.73159854160622,0.840779032409191,18.5205410242081,2.15308996036649,18.6642210013744
8.74157154164277,-0.403463727235794,17.1100522756577,1.22874866142869,17.1588605428186
8.75154354167171,-1.60066300570965,15.3845225644112,-0.0312662315368652,15.467599496042
8.76151654159185,-2.47884960025549,14.0146555924416,-0.94016605719924,14.2632106809985
8.77148854162078,-3.37409310758114,13.1175336670876,-2.13394369125366,13.711597626945
8.78146154165734,-4.15946714043617,12.3269292998314,-3.69754558235407,13.5250211160277
8.79143354168627,-4.50750277161598,11.5692026567459,-5.12973714888096,13.434218792531
8.8014070832869,-4.49119313299656,11.2643405270576,-6.10274833202362,13.575703314061
8.81137908331584,-4.04560021698475,11.1525756776333,-6.49671501159668,13.5260537963927
8.82135208335239,-3.53707781195641,10.9165960872173,-6.54373890459538,13.2099776090196
8.83132408326492,-3.24630337893963,10.7339664924145,-7.25168644666672,13.3545302653879
8.84129708330147,-3.65479834288359,10.2134976410866,-8.67507766127586,13.8899264728361
8.85126908333041,-3.29128864020109,9.81993324995041,-7.98599440634251,13.078217638682
8.86124208336696,-2.05101233929396,9.43505548238754,-5.37424490332603,11.0503136540368
8.87121408327948,-1.01728542298079,8.96398157000542,-2.60774942278862,9.39085684435986
8.88118708331604,-0.611120428293943,8.39092987775803,-0.686541616469622,8.44112029190884
8.89115908334497,-1.09377825960517,7.75548605561257,0.310872921198607,7.8384026952639
8.90113208326511,-2.33151803836227,7.53251418113709,0.74185978487134,7.91991806729396
8.91110408329405,-3.90439756035805,7.56973170876503,1.01849959731102,8.57802424114874
8.9210770833306,-5.37874550521374,7.76561811089516,1.12317879080772,9.51300470147262
8.93105008336715,-6.43039998471737,7.78751067101956,1.05015050254762,10.1537275171583
8.94102208327968,-7.26743884563446,6.77949103832245,0.231257452145219,9.94136037586928
8.95099508331623,-6.69186875760555,7.07363989949226,-0.681573748961091,9.76125154229616
8.96096708334517,-5.00991425156593,9.14050901055336,-0.875491393581033,10.4601448823754
8.97094008326531,-3.84655602604151,10.5593487524986,-0.850898516178131,11.2703091183518
8.98091208329424,-3.47119869500399,11.1675515663624,-1.07661331951618,11.7440420898139
8.9908850833308,-3.57357993274927,11.3075491118431,-1.71528407379985,11.9822093082338
9.00085708335973,-3.89760601937771,11.1350632667542,-2.41025971412659,12.0411925707734
9.01083008327987,-4.31402717649937,10.843671952486,-3.19190088450909,12.0989372735475
9.02080208330881,-4.60610816985369,10.5544277358055,-4.07227872312069,12.2145663574895
9.03077508334536,-4.65533470898867,10.242833122015,-4.23260060548782,12.0209267323172
9.04074708325788,-4.45195890069008,9.89436128854752,-3.40047282099724,11.3702039897304
9.05072008329444,-4.11778789490461,9.53890086293221,-2.47979889571667,10.6815827190295
9.06069208332337,-3.84378473818302,9.24541858434677,-1.56133054018021,10.1336172697104
9.07066508335993,-3.70535307705402,9.00611192822457,-0.829680140018463,9.77384584613874
9.08063708327245,-3.65163119852543,8.76617728114128,-0.450351380109787,9.50700220363962
9.090610083309,-3.5999608156085,8.50593642354012,-0.317979773283005,9.24184956875193
9.10058308334556,-3.61264108747244,8.14094211280346,-0.270614987611771,8.91063109899804
9.11055508325808,-3.68653439819813,7.83513858139515,-0.0411375055694953,8.65919307748299
9.12052808329463,-3.7455632096529,7.49432016849518,0.252048908472061,8.38198110220256
9.13050008332357,-3.96195842832327,6.92112814307213,0.398117033243179,7.98483728905888
9.14047308336012,-4.08223594665527,6.44495545864105,0.355399614572525,7.63730384848409
9.15044508327264,-4.46417198002339,5.67087356865406,-0.137637609243393,7.21848894231773
9.1604180833092,-4.91391934275627,4.92394205510616,-0.927063177824021,7.01792382438243
9.17039008333813,-4.58164429664612,4.47077757954598,-1.0132102060318,6.48119676821865
9.18036308325827,-3.73653744757175,4.65808787047863,1.62595279812813,6.18895929926404
9.19033508328721,-3.38075425565243,3.93124622046948,2.53883764743805,5.77320472381816
9.20030808332376,-2.37110032618046,3.03593517780304,2.12711180448532,4.40041177498377
9.2102800833527,-0.903935685753822,1.30163522779942,2.37665401160717,2.85654306481035
9.22025308327284,2.82926826417446,-4.67777661502361,3.93093924164772,6.7333970841064
9.23022508330178,12.1438763666153,-17.7667530655861,6.86861605346203,22.5900228904494
9.24019808333833,28.1702711820602,-31.4636405539513,9.21216429948807,43.224863521587
9.25017008336727,42.7760451936722,-37.545984442234,12.8419684267044,58.3472976513912
9.2601430832874,51.1599888181686,-30.1893474912643,14.9206360495091,61.2484002888676
9.27011508331634,58.9539062833786,-14.6063973248005,12.4379036056995,61.9968656867748
9.28008808335289,33.9556279706955,-4.06883149713278,-25.5441790437698,42.6854207388952
9.29006008326542,8.88413842499256,-2.32900768250227,-42.4860934638977,43.467462890795
9.30003308330197,32.1000608611107,0.188526511788368,9.87330312609673,33.5846924081857
9.31000608333852,8.35839655458927,-3.21345021307468,3.3924176967144,9.57588393124419
9.31997808336746,-2.33198303818703,-3.07862628400326,-1.26275255933404,4.06332729583188
9.3299510832876,-3.94656534075737,-2.87805099964142,-4.13335552185774,6.39868606945802
9.33992308331654,-6.32214229524136,-2.81452597171068,-17.161432929039,18.5042108673842
9.34989608335309,-6.213173584342,-3.50901936292648,-28.2052305150032,29.0938442163119
9.35986808326561,-1.22895959973335,-2.7114112007618,-3.64974547147751,4.7098550300369
9.36984108330216,-0.472884795069695,-2.55808229595423,2.94078489929438,3.92627315481239
9.3798130833311,-2.29524322807789,-3.67065774589777,2.19220564037561,4.85259057960296
9.38978608336765,-2.93798379063606,-3.76915467828512,2.1392664116621,5.2359083761029
9.39975808328018,-2.14630002737045,-3.64606084853411,1.71125782728195,4.56385438748186
9.40973108331673,1.15050809204578,-3.72655508100987,-0.77272752866149,3.97592624116879
9.41970308334567,6.70327609062195,-3.40298420011997,-3.6791084343195,8.36959083138781
9.4296760832658,10.1161754143238,-2.89267430126667,1.14624890707433,10.5838771810498
9.43964808329474,11.515155673027,-2.1644684958458,4.55026638329029,12.5693539293974
9.44962108333129,11.9035031783581,-1.12089925378561,3.70848309159279,12.5180929016743
9.45959308336023,9.16767926752567,-0.651232766211033,1.41136524617672,9.29851596364293
9.46956608328037,4.84791070997715,-1.04677965581417,0.0979163038730621,4.96060213102218
9.47953908331692,2.82963313043118,-1.60730164200068,0.693072225451469,3.32724981492284
9.48951108334586,1.79457071006298,-2.2334486836195,1.21116126000881,3.11057690043563
9.499484083266,1.07043865978718,-2.80295637845993,1.50325131654739,3.35591536016891
9.50945608329494,0.608629075884819,-3.44207283675671,1.70797812402248,3.89043494196859
9.51942908333149,0.413146716356278,-4.26664221793413,1.86320825099945,4.67402086128061
9.52940108336043,0.607771289348602,-5.06697605967522,2.02070709764957,5.48879672642098
9.53937408328056,1.14572565436363,-5.64112644374371,2.16424103915691,6.14971008299924
9.5493460833095,1.74759476423264,-5.95285437405109,2.23078118383884,6.59294678795469
9.55931908334605,2.10940877437592,-5.96740867853165,2.13135162055492,6.67849020696078
9.56929108325858,1.98607988655567,-5.65718699097633,1.86585762441158,6.27930749694803
9.57926408329513,1.38197012364864,-5.0141008579731,1.4868469530344,5.40941426573448
9.58923608332407,0.587438181638718,-4.307616289258,1.0530665820837,4.47320812605778
9.59920908336062,-0.0880713468790054,-3.62974770158529,0.613170608282089,3.68222801224555
9.60918108327314,-0.663221604824066,-3.0439546340704,0.232625042796135,3.12404179260137
9.6191540833097,-1.08176120817661,-2.43827781736851,-0.13489588636905,2.67088055261675
9.62912608333863,-1.57293083131313,-1.86065184831619,-0.504367373585701,2.4880761942263
9.63909908325877,-1.96760093092918,-1.26264540910721,-0.63479945898056,2.42253941261126
9.64907208329532,-2.19857998251915,-0.609291565418244,-0.547966479286552,2.34632849653356
9.65904408332426,-2.38013368964195,0.0370655000209808,-0.324771314263344,2.40247510672406
9.66901708336081,-2.39067621946335,0.68021010518074,-0.0399124362319708,2.48588245419278
9.67898908327334,-2.26319054603577,1.28932216107845,0.242383460998535,2.61593823032565
9.68896208330989,-1.94719414830208,1.82393601179123,0.51178800188005,2.71665871709332
9.69893408333883,-1.396164239645,2.25532954931259,0.716393260359764,2.74754531601481
9.70890708325896,-0.912773752212524,2.5586614626646,0.728018767610192,2.81245724042976
9.7188790832879,-0.618586299419403,2.89335550189018,0.572199752926827,3.0135639411496
9.72885208332446,-0.573089114427567,3.31430591225624,0.174249950051308,3.36799908821023
9.73882408335339,-0.852051002383232,3.95741894245148,-1.46786396741867,4.30601674678375
9.74879708327353,-1.48423500180244,5.13648542046547,-5.60327040016651,7.74487412374223
9.75876908330247,-1.05767945051193,5.33194497585297,-5.77980193376541,7.93438299044843
9.76874208333902,0.184477314949036,4.86340407729149,-2.69305386722088,5.56230799493336
9.77871408336796,0.539550654888153,4.97917426943779,-1.54409645676613,5.24094697382251
9.7886870832881,0.132124269604683,5.50727432191372,-1.99567823722959,5.85920292411695
9.79865904164035,-0.438586782217026,6.05274294376373,-3.23331963658333,6.87622071934377
9.8086320416769,-1.02510987460613,6.37161441743374,-4.37715547084808,7.79793630106324
9.81860504159704,-1.36684396147728,6.21947863698006,-4.05015812158585,7.54678459615259
9.82857704162598,-1.26431478917599,5.73717105388641,-2.87639214456081,6.54119678323259
9.83855004166253,-1.03364622473717,5.2497196751833,-1.78953172579408,5.64184411194988
9.84852204169147,-0.725433055758476,4.72842051923275,-1.11304805114865,4.91152620773362
9.8584950416116,-0.468639131784439,4.23068447291851,-0.855841825380922,4.34174837770509
9.86846704164054,-0.248528299927712,3.74907153904438,-0.815715234875679,3.84482705269637
9.8784400416771,0.0736889505386353,3.26899291455746,-0.845976987853646,3.37748749825018
9.88841204158962,0.44192729651928,2.79048894524574,-0.874103922396898,2.95739513019434
9.89838504162617,0.825118142366409,2.22728688776493,-0.928218587636948,2.55014050116979
9.90835704165511,1.16568746387959,1.66806502997875,-0.914708157330752,2.23113406606852
9.91833004169166,1.47982620120049,1.13086320161819,-0.800483822822571,2.02719301427719
9.92830204160418,1.91857904434204,0.506170070171356,-0.655173570290208,2.08959472064142
9.93827504164074,2.64633519887924,-0.321151303052902,-0.596651054620743,2.7317065408385
9.94824704166967,3.45714052677155,-1.36950795292854,-0.700166067481041,3.78386114663747
9.95822004158981,3.98925703167915,-2.26536863386631,-1.00191046178341,4.69573117688161
9.96819304162636,3.74463408708572,-2.89824728250504,-1.50062123894691,4.96729160201923
9.9781650416553,2.43947474241257,-3.0742022806406,-1.69097851395607,4.27330843911668
9.98813804169186,0.715222647786141,-2.37149559795857,-0.930626471042633,2.64605374768698
9.99811004160438,-0.62598945915699,-1.44565448820591,0.0670769190788269,1.57679390388175
10.0080830416409,-1.50509728252888,-0.901969851851463,0.750626953840256,1.9084832373789
10.0180550416699,-1.92699786543846,-0.583538088798523,1.54077289938927,2.53531430043208
10.02802804159,-1.6196372205019,-0.375395337939262,2.17283118367195,2.73593525846627
10.0380000416189,-0.665852267146111,-0.526923592686653,2.17091329693794,2.33106676374045
10.0479730416555,0.24658117711544,-0.843491263389588,2.10519702494144,2.28125717580121
10.0579450416844,0.479858184456825,-0.905996829271317,2.22401186227798,2.44894322012436
10.0679180416046,0.155328944921494,-0.426978889703751,2.0978032207489,2.14644273307432
10.0778900416335,-0.146975027918816,0.104515471458435,1.74838998556137,1.75766682969703
10.0878630416701,-0.428147748112679,0.390828478932381,1.51936858177185,1.62620364082545
10.097835041699,-0.587600734233856,0.605711899995804,1.36597857356071,1.60563351736804
10.1078080416191,-0.665822446346283,0.943711370229721,1.20468671120703,1.66888608134834
10.1177800416481,-0.847414160370827,1.47732125401497,1.00069482564926,1.97534275021895
10.1277530416846,-1.23786666333675,2.27477154135704,0.889293673038483,2.73820062787127
10.1377260416048,-1.82878452301025,3.41572762191296,0.795932350158692,3.95539584930891
10.1476980416337,-2.32432084679604,4.52359840214253,0.657828133106232,5.12817197014912
10.1576710416703,-2.49092263877392,5.25155511617661,0.555760306119919,5.83886943238634
10.1676430416992,-2.58405650496483,5.63407587110996,0.57372470676899,6.22489509802629
10.1776160416193,-2.72110822319984,5.86426496386528,0.568345853090286,6.48976506027057
10.1875880416483,-2.45443425893784,5.93178568661213,0.653321684002876,6.45268612177383
10.1975610416848,-1.62975465774536,5.87083840370178,0.510166057348251,6.11417314220759
10.2075330415973,-0.754332334399223,5.41267806708813,-0.389587188139558,5.47885748179486
10.2175060416339,0.2631913626194,4.53808370947838,-1.13386574685574,4.68498932543962
10.2274780416628,1.52326165795326,3.96148977398872,-0.987356157302857,4.35759101905762
10.2374510416994,3.35083756148815,3.39829765677452,-0.978961894512177,4.8718482856536
10.2474230416119,5.36459992110729,1.95840559959412,-4.40680494725704,7.21347451989921
10.2573960416485,7.06159288108349,0.245757304430008,-10.2668944144249,12.4633707955673
10.2673680416774,4.2093725413084,-0.221187888979912,-6.19349711894989,7.49180537895861
10.2773410415975,0.910897965431213,-0.218673586249352,-1.06249821402133,1.41649415655285
10.2873140416341,-0.209137362241745,0.155518394708633,0.214558900594711,0.337579515377631
10.297286041663,-1.24527040779591,1.07844291329384,0.96073495388031,1.90702626027365
10.3072590416996,-2.01796884655952,2.19834317028523,1.50435936391354,3.34185697716387
10.3172310416121,-2.19002784490585,3.37340021252632,1.85165298342705,4.42771608466147
10.3272040416487,-2.28688872635365,4.56760688602924,2.49004848003387,5.68271362510413
10.3371760416776,-2.34113100707531,5.65376578509808,2.92519300639629,6.78253021148486
10.3471490415977,-2.34303193688393,6.55765352368355,2.66353127539158,7.45567014083418
10.3571210416267,-1.92855731785297,7.30671225428581,1.22919348835945,7.65625848094224
10.3670940416632,-1.10031149983406,8.02314819931984,-4.01227459609509,9.03769549494705
10.3770660416922,0.790373986959458,8.17526176035404,-6.37560046434403,10.3974937927615
10.3870390416123,1.90419840216637,7.29346421778202,-0.99219779804349,7.60296312771027
10.3970110416412,2.80746984422207,6.48666657149792,1.63534868896008,7.25486701949032
10.4069840416778,3.8389210242033,5.26574338495731,1.89546383142471,6.78661558971267
10.4169560415903,3.93910955607891,3.35909090638161,1.33909483015537,5.34726572897557
10.4269290416269,3.3986613535881,1.39498719513416,0.825916287302971,3.76550474499687
10.4369020416634,2.7784968906641,-0.487275669872761,1.21445031881332,3.0712167176456
10.4468740416924,1.9951816624403,-2.519479855299,2.0626965379715,3.81880159410712
10.4568470416125,1.48341054439545,-4.70643323421478,2.59619415521622,5.57595236017345
10.4668190416414,1.77108419895172,-6.80731793761253,2.91519251346588,7.61410954308416
10.476792041678,2.77241987943649,-8.94814497113228,3.3607281267643,9.95239187101871
10.4867640415905,4.16921620309353,-11.0459528696537,4.13540818691254,12.5098776740275
10.4967370416271,5.67180912315846,-13.1207309246063,5.20079894542694,15.2108943982995
10.506709041656,7.60089385986328,-14.7111689043045,6.92257474422455,17.9475379673441
10.5166820416925,9.46816943407059,-16.9099968087673,8.58615203619003,21.1970807257358
10.5266540416051,11.5023643040657,-18.9158502244949,9.61388555645943,24.1358772326938
10.5366270416416,12.8892349791527,-20.4622727036476,9.50311356425285,25.983574618619
10.5465990416706,12.8565326714516,-20.5299624109268,7.53625756859779,25.3685822833366
10.5565720415907,12.3276403212547,-19.3097233486176,4.43388749599457,23.3344271414044
10.5665440416196,12.0868496417999,-17.6003354609013,1.50394245743752,21.4038684707933
10.5765170416562,11.5411243271828,-16.1443050885201,-9.45585285902023,21.9829318067028
10.5864890416851,7.53660606265068,-16.1099281382561,-40.3134224939346,44.0624811913473
10.5964620416053,12.2465862178803,-13.3504458081722,1.03868769407272,18.1464087189376
10.6064350416418,13.4185027205944,-13.9917883014679,0.575293222367764,19.3947755188709
10.6164070416708,14.7715086615086,-14.9465380454063,-0.751575664579868,21.0276326213721
10.6263800415909,15.5466623461247,-16.5528710961342,-3.60299698233604,22.9929954308778
10.6363520416198,16.5118634033203,-18.675873477459,-8.7534186565876,26.4206779128292
10.6463250416564,17.7397482848167,-16.067924079895,-1.58672879844904,23.987383386392
10.6562970416853,17.0602152872086,-10.6321793317795,3.00454644709826,20.3253900907656
10.6662700416055,14.397047123909,-6.8316522949934,2.99682666063309,16.2150365094139
10.6762420416344,10.6371903955936,-3.46391978859901,2.47628998160362,11.4577734262355
10.6862150416709,7.19819611787796,-0.563394430875778,2.30229613959789,7.57839086815813
10.6961870416999,4.51953984975815,1.72959469556808,1.80910337984562,5.16629396216069
10.70616004162,2.70269767999649,3.54636611402035,0.633599610328674,4.5036358456628
10.716132041649,0.428188970983028,5.45369453072548,-2.63743632137775,6.07307172513705
10.7261050416855,0.100141169428825,7.90551742315292,-5.38178371846676,9.56403837162644
10.7360780416057,3.04089098542929,8.48544953405857,-0.734144895449281,9.04371828994215
10.7460500416346,3.6306309235096,9.76231361746788,2.01771449267864,10.6092139125624
10.7560230416711,2.52353636115789,12.0515757286549,1.92363805532455,12.46230703672
10.7659950417001,2.28893934488297,14.1609926891327,2.80211204051971,14.6159087693461
10.7759680416202,1.29742727905512,15.0738915717602,2.53073633015156,15.3398223925301
10.7859400416492,0.112959143221378,15.5471453261375,2.3031287831068,15.717216348694
10.7959130416857,-0.896261507570744,16.5712266755104,2.58747186362743,16.7959473941235
10.8058847083012,-1.79061009854078,17.597590777874,2.54977954208851,17.8712859476806
10.8158577083377,-2.3662371969223,17.8834857094288,2.37774568676949,18.1953789227483
10.8258297083667,-2.56267060607672,17.588646876812,2.22201211452484,17.9127082661872
10.8358027082868,-2.53013699054718,16.8226908624172,1.9026769566536,17.1179642669557
10.8457747083157,-2.96957103431225,15.8506579184532,1.62951316773891,16.2085477985995
10.8557477083523,-3.52292842715979,14.7458171653748,1.29151603639126,15.2157208915584
10.8657207082724,-3.92495578587055,14.0036780297756,0.88803067445755,14.5704109331699
10.8756927083014,-3.89531420320273,13.4894212603569,0.523467157334089,14.0503372395772
10.8856657083379,-3.87165899991989,13.160052280426,0.0729345135390759,13.7179458694978
10.8956377083668,-3.72382589310408,12.9381504464149,-0.325864305049181,13.4673235574677
10.905610708287,-3.64056680470705,12.6407938027382,-0.645456886589527,13.170421755408
10.9155827083159,-3.40159110099077,12.3955873060226,-1.02593096986413,12.8947253183034
10.9255557083525,-3.52707761138678,11.7784230494499,-2.77827177286148,12.6051703698299
10.935527708265,-5.85786050856114,9.98035862803459,-15.1513683485985,19.0653101447854
10.9455007083016,-6.50871934533119,8.9162682902813,-15.8679867267609,19.3301906483413
10.9554727083305,-4.27491573572159,9.38229020833969,-4.37171171307564,11.1988453602713
10.965445708367,-2.92011265307665,9.66177191376686,-1.75008801698685,10.2440081260956
10.9754177082796,-2.22347625732422,9.53930665969849,-0.803420294523239,9.82790427223954
10.9853907083161,-1.8491182154417,9.03994216382504,-0.409178064912558,9.23619072934213
10.9953627083451,-1.69732245057821,8.44834251880646,-0.220768058896065,8.61998453317282
11.0053357082652,-1.6969727870822,7.72933321416378,-0.191257673129439,7.91573673597119
11.0153087083017,-1.67601198077202,7.20791535973549,0.0417560633271933,7.40032455785736
11.0252807083307,-1.88819077223539,6.65438284277916,0.200850669946522,6.92000118513332
11.0352537083672,-2.18721767306328,6.54431953310967,0.282146281599999,6.90591382982888
11.0452257082798,-2.95762020260096,6.72021430492401,0.411083818674088,7.35376009079126
11.0551987083163,-3.90868883192539,6.93265417456627,0.406786115169525,7.96900352819875
11.0651707083453,-4.73402156710625,7.28855255663395,0.608962988443673,8.71233576544985
11.0751437082654,-5.50141950488091,7.9240419870615,0.73420446395874,9.67445678972699
11.0851157082943,-5.81375554561615,8.32158950150013,0.0751145017147064,10.1515637989439
11.0950887083309,-6.1944122081995,8.46643789708614,-0.981854512095451,10.5363822801391
11.1050607083598,-6.86360089659691,8.50233219981194,-2.8390243434906,11.2897621465936
11.11503370828,-7.49670641720295,8.48840647101402,-6.68202964782715,13.1492650645321
11.1250057083089,-7.35983596265316,8.4987525343895,-6.11791893303394,12.7994106156936
11.1349787083454,-6.35913996756077,8.53026142537594,-2.07564636647701,10.8403103715233
11.1449517082656,-5.32785484850407,8.54827611207962,0.231776027083397,10.0753551749708
11.1549237082945,-4.6992873519659,8.52909315168858,1.15441987931728,9.80619278131379
11.1648967083311,-4.28272586166859,8.27511875510216,1.28503849089146,9.40588407010851
11.17486870836,-4.17893252134323,7.91494021117687,0.986840432882309,9.00464377998464
11.1848417082801,-4.15646576464176,7.5685242587328,0.675900707244873,8.66115516970571
11.1948137083091,-4.13355695843697,7.20561798870564,0.396057059168816,8.31649474970786
11.2047867083456,-4.10667672336102,6.86489079236984,-0.0188239596225321,7.99949208655245
11.2147587082582,-4.08441695809364,6.5110646635294,-0.565501803942025,7.70689413645249
11.2247317082947,-4.02658624112606,5.93086591959,-1.77900132894516,7.38602823185563
11.2347037083237,-4.19461826205254,4.8387487077713,-4.60955013334751,7.89026386460853
11.2446767083602,-4.33093440055847,3.30141631007195,-7.95657998800278,9.64175852943
11.2546487082727,-3.80597605705261,2.70512310504913,-3.27006470918655,5.70056733690567
11.2646217083093,-3.99815357029438,3.80160409390926,3.54962125897408,6.56027718474197
11.2745947083458,-3.8317856669426,4.32901709854603,2.35114085555077,6.24106030731402
11.2845667082584,-3.5741093981266,4.03940976977348,2.25417297005653,5.84571510226524
11.2945397082949,-2.35071693241596,2.02566846013069,2.93882578969002,4.27386240172312
11.3045117083238,0.657135238051415,-1.61039218783379,3.72895302414894,4.11464219295366
11.3144847083604,6.48119825541973,-9.00706853270531,3.79599602937698,11.7278642656688
11.3244567082729,17.7585260331631,-21.5959566020966,4.64358619093895,28.342785345531
11.3344297083095,33.7267539167404,-35.2374803137779,10.9017125844955,49.9802089421323
11.3444017083384,44.2373392295837,-39.0061020183563,15.0806883752346,60.8756547287224
11.3543747082585,54.6051402139664,-35.706600086689,13.585312088728,66.6426539994154
11.3643467082875,65.7357408857346,-31.8216421794891,4.61589757829905,73.178624278195
11.374319708324,53.9284817075729,-22.9856339406967,-13.9839249658585,60.267492600825
11.384291708353,-5.84366990089417,-12.8381607198715,-61.6611484193802,63.2539648794975
11.3942647082731,22.1553901290894,-5.48312649071217,-8.06633339524269,24.2072658994878
11.4042367083021,20.3409055566788,-3.37295933246613,8.67416374146938,22.3689608640638
11.4142097083386,4.04881677031517,-1.48917005181313,1.97581977725029,4.74493503379929
11.4241827082587,-0.682011632323265,0.259128717184067,-1.28447218805552,1.47721236136915
11.4341547082877,-12.3982197225094,-1.15486660659313,-45.8155120897293,47.4774758934253
11.4441277083242,-11.6546936273575,-4.99991375863552,-42.5271502733231,44.3778044917858
11.4540997083532,0.633132417798042,-3.7416379737854,8.99968408405781,9.76703767772927
11.4640727082733,1.26617186486721,-2.67482868075371,7.08819654285908,7.681173731466
11.4740447083022,0.156805366873741,-3.7002034342289,2.19244537621737,4.30382505516391
11.4840177083388,-0.141166988611221,-4.42860687553883,0.992404935657978,4.54063371491928
11.4939897083677,0.0942325580120087,-5.36051622569561,1.47252068996429,5.5598858948101
11.5039627082879,1.19952530086041,-6.26658263683319,2.6903565466404,6.92437269647687
11.5139347083168,3.45791118979454,-6.73213209986687,3.63766863226891,8.39710578025294
11.5239077083534,6.09310919702053,-6.39670306563377,3.47898104667664,9.49458260903764
11.5338807082735,7.07101566910744,-4.87375423371792,2.36633192181587,8.90798909337293
11.5438527083024,5.43478989779949,-2.4632191157341,1.17192242302001,6.08093675439224
11.553825708339,3.41917981803417,-0.59337193608284,1.40402859851718,3.74355141383647
11.5637977083679,2.24916132152081,0.710801568031311,2.26998062521219,3.27364896685331
11.5737707082881,1.48359824001789,2.23988529860973,2.96226376891136,3.99914447417409
11.583742708317,0.970056000351906,3.88315170228481,3.40423842787743,5.25439959087749
11.5937157083536,0.40478285908699,5.31141832530499,4.01893399000168,6.67284378697621
11.6036877082661,-0.612392343878746,6.37697923779488,4.56368866682053,7.86563047884747
11.6136607083026,-1.84303886532784,6.71326956689358,4.38601283311844,8.22811576906694
11.6236327083316,-2.71807293355465,6.72021079659462,3.59537162840366,8.09171494611119
11.6336057083681,-3.32027065694332,6.57361642241478,2.5344539898634,7.78845858505614
11.6435777082806,-3.748351162076,6.53026575028896,1.49004304111004,7.6755934928834
11.6535507083172,-3.78912145793438,6.52675683617592,0.663568344712258,7.57603584796508
11.6635237083538,-3.77661718726158,6.65324029684067,0.0842547961324453,7.65085241638443
11.6734957082663,-3.78280412614346,6.85648132681847,-0.315650096386671,7.83712818736093
11.6834687083028,-3.75701732039452,7.0672845607996,-0.655785773769021,8.03067526364618
11.6934407083318,-3.86873773097992,7.36593753218651,-1.25965338885784,8.41492091580441
11.7034137083683,-4.45437438547611,7.73862034678459,-6.60397165775299,11.1058605111922
11.7133857082808,-4.54646452367306,7.82186189353466,-11.9261880362034,14.9694964585128
11.7233587083174,-1.64321231693029,6.91401325106621,-5.38384018421173,8.91568623738877
11.7333307083463,0.997489674389362,6.20446824967861,-2.95897412538528,6.94592972801215
11.7433037082665,2.49801443427801,5.42545423328877,-3.00636054575443,6.68684032129085
11.7532757082954,3.49034540265799,4.79025716364384,-3.01982142090797,6.6519467930728
11.763248708332,3.8847956469655,4.18996914088726,-2.63546639442444,6.29230972985359
11.7732217083685,4.08442982196808,3.66731284618378,-1.51882946848869,5.69548886722785
11.783193708281,4.4534861934185,3.22090541303158,-0.115106094628572,5.49736485670053
11.7931667083176,4.80413845360279,2.52905350148678,0.573869717717171,5.4594124544387
11.8031386666698,5.23277444422245,1.66548114538193,0.814197882413864,5.55145692782152
11.81311166659,5.6488289809227,0.833485507965088,0.70696871817112,5.75358772559979
11.8230836666189,6.02373841524124,0.105576156377792,0.232026872634888,6.029129894908
11.8330566666555,6.47869213879109,-0.683305621147156,-0.646569830998778,6.54663355836284
11.8430286666844,6.61044978797436,-1.51090532183647,-1.40094492316246,6.92412651304254
11.8530016666045,5.99077122867108,-2.07483828127384,-1.58158763408661,6.53419568516342
11.8629736666335,4.83801897525787,-2.50615522027016,-1.51826521217823,5.65617988111704
11.87294666667,3.67386991381645,-2.57182939231396,-1.23569793105125,4.65172827491246
11.882918666699,2.9089669829607,-2.17857490360737,-0.830982899665833,3.72811079477533
11.8928916666191,2.30742356300354,-1.54304863572121,-0.440740896463394,2.81059693466004
11.9028646666557,1.34507126927376,-0.950522207021713,-0.145201567411423,1.65341848321769
11.9128366666846,0.0417678308486939,-0.466858654618263,0.101147456970066,0.479512630842287
11.9228096666047,-1.27171268641949,-0.0767803734540939,0.445384755134583,1.3496354925143
11.9327816666337,-2.36419242560864,0.297077731490135,0.72203991651535,2.48977963781819
11.9427546666702,-3.06097646355629,0.632565822601318,0.912848596572876,3.25622618849396
11.9527266666992,-3.43349380195141,0.85504419207573,1.08796334981918,3.70184339336377
11.9626996666193,-3.45507236659527,0.896734254956246,1.18438744425774,3.76090826803015
11.9726716666482,-3.07735276043415,0.75829616189003,1.07732609510422,3.34749825936943
11.9826446666848,-2.61641324222088,0.546588363647461,0.909196425676346,2.82329864410519
11.9926166665973,-2.3507718962431,0.36214613199234,0.83114194393158,2.51953869985078
12.0025896666339,-2.21176428437233,0.186845437288284,0.857477803230286,2.37951269172768
12.0125626666704,-2.08665374994278,0.0146911293268204,0.869500848054886,2.26061306423707
12.0225346666994,-1.95316123187542,-0.257173992991447,0.871991761922836,2.15437853991205
12.0325076666195,-1.78920530498028,-0.579770727753639,0.888282104730606,2.080008369626
12.0424796666484,-1.56567736029625,-0.933137850165367,0.885273127555847,2.02627746232543
12.052452666685,-1.19927270114422,-1.39193904161453,0.87780974149704,2.03624636268494
12.0624246665975,-0.795445277094841,-1.80746674418449,0.923471817970276,2.18001592167826
12.0723976666341,-0.588646216392517,-2.03507370650768,0.987942048311234,2.33753264144344
12.082369666663,-0.558687422275543,-2.0922056812048,1.01029829263687,2.3895938751971
12.0923426666996,-0.446254236102104,-2.06961437880993,0.956238445043564,2.32310965819421
12.1023146666121,-0.196909664869308,-2.12491032779217,0.740606580376625,2.25887481374553
12.1122876666486,0.0161669665575027,-2.24066707134247,0.417769525051117,2.27933798973903
12.1222596666776,0.180818712115288,-2.25546345055103,0.131023841891438,2.26649024497495
12.1322326665977,0.149269475340843,-2.0787389588356,-0.0590545392036438,2.08492793013332
12.1422056666343,-0.146197348237038,-1.67737204313278,-0.252286890149117,1.70252733036979
12.1521776666632,-0.585227934122086,-1.19120354354382,-0.414964067526162,1.39055844694353
12.1621506666997,-0.980948193669319,-0.735714215040207,-0.544538914561272,1.34166217593957
12.1721226666123,-1.32590000331402,-0.364944024682045,-0.656736384853721,1.52397429083629
12.1820956666488,-1.58368503034115,-0.0904423928260803,-0.749241163730621,1.75430910137728
12.1920676666778,-1.7034991568327,0.0729235500097275,-0.852559271603823,1.90632749890289
12.2020406665979,-1.73509751021862,0.0511175286769867,-0.936721608638764,1.97246641132256
12.2120126666268,-1.66734289884567,-0.171722198724747,-1.03012744344771,1.96740524692044
12.2219856666634,-1.49053713083267,-0.534647179841995,-1.08303772844374,1.91846794774801
12.2319576666923,-1.29099271059036,-0.936531574130058,-1.30687842607498,2.06196139359596
12.2419306666125,-0.981832292675972,-1.29556991100311,-1.75205385088921,2.39001856512741
12.251903666649,-0.482369563579559,-1.64469078540802,-2.3018956053257,2.86991490349309
12.261875666678,0.178074613809586,-1.84602503836155,-2.84372082710266,3.39503566297007
12.2718486665981,0.994698505997658,-1.77942992985249,-3.24692961573601,3.83384244885368
12.281820666627,1.57527264118195,-1.43172525107861,-3.23313954234123,3.8709833878335
12.2917936666636,1.69408513963223,-0.933893310427666,-2.57164929807186,3.21799025602281
12.3017656666925,1.308173584342,-0.29736249089241,-1.62121012151241,2.10429675565359
12.3117386666127,0.635136258602142,0.316274140477181,-0.731971485391259,1.01941633023588
12.3217106666416,-0.0276871508359909,0.759709433913231,-0.18427551291883,0.782229165244863
12.3316836666781,-0.51064962208271,1.29750241577625,-0.0533516766875982,1.3953931191187
12.3416556665907,-0.877437273859978,1.90560992002487,-0.224216161966324,2.10986213391846
12.3516286666272,-0.966564627885819,2.47133797466755,-0.58390054307878,2.7171121451132
12.3616006666562,-0.79445768237114,2.94380644798279,-0.906803087219596,3.18110849410305
12.3715736666927,-0.673761795759201,3.21990261554718,-0.448279273062944,3.32004248733206
12.3815466666128,-0.621311101913452,3.4817964810133,0.457074508666992,3.566209658311
12.3915186666418,-0.208325183987618,4.13559120476246,0.885611681342125,4.2344801387327
12.4014916666783,0.312949998378754,5.22428253293037,-0.214350154995918,5.23803509670501
12.4114636665909,0.606505951881409,6.35606784045696,-1.16016769230366,6.48948664660187
12.4214366666274,0.494268062710762,7.07397669911385,-0.0356709390878677,7.09131297245559
12.4314086666564,0.515191739201546,7.57244364738464,1.5750598025322,7.75165393335579
12.4413816666929,0.234288575649261,8.04959106266499,1.60245985507965,8.21088819799403
12.4513536666054,-0.515607476234436,8.52802720427513,0.742396486178041,8.57579451765812
12.461326666642,-0.88060704946518,9.10064269423485,0.196648879051209,9.14526309109421
12.4712996666785,-0.547977662086487,9.66893826127052,0.7197138941288,9.7111603172746
12.4812716665911,0.228561227917671,10.2177918362618,1.84846274256706,10.3861602507733
12.4912446666276,0.838034641742706,10.370170276165,2.14291039645672,10.6223725497019
12.5012166666565,1.41400234043598,10.0813646006584,1.70311674892902,10.3215270910195
12.5111896666931,2.07476986885071,9.405055757761,1.56498738884926,9.75750630758399
12.5211616666056,2.46477505981922,8.2744416475296,2.34864760279655,8.94749385224719
12.5311346666422,1.72748268127441,6.36698751568794,2.86342535912991,7.19179610572612
12.5411066666711,0.768870266675949,4.06781203508377,2.12304915904999,4.65248256004185
12.5510796665913,0.648514103293419,1.81847997486591,0.64006144143641,2.03399080872369
12.5610516666202,0.660451194047928,-0.403736792206764,-0.940109485387802,1.21778693605115
12.5710246666567,0.488697420358658,-2.22355753362179,-1.09487541653216,2.52621959689135
12.5809966666857,0.462283208370209,-3.48241482406855,0.00859833061695099,3.51297490781287
12.5909696666058,0.705074220299721,-4.47193942129612,1.17032313644886,4.67600556966959
12.6009426666424,0.978443831205368,-5.35468362808228,1.96787224173546,5.78813529968583
12.6109146666713,1.22706627130508,-6.01568972289562,2.49718968451023,6.62798391645234
12.6208876665914,1.41601846039295,-6.10923289418221,2.9818320608139,6.94400153185677
12.6308596666204,1.54484080731869,-5.76165159165859,3.37134374678135,6.85194285167213
12.6408326666569,1.58955388069153,-5.64437574148178,3.5406615704298,6.8499593726509
12.6508046666859,1.83416980862618,-6.11353410601616,3.46095408082008,7.26069427133823
12.660777666606,2.4185861492157,-6.994375628829,3.31727512836456,8.11018888038998
12.6707496666349,3.24214600861073,-8.1001881891489,3.25648045778275,9.31285264635379
12.6807226666715,4.37936162531376,-9.42029652535915,3.20554828584194,10.871813771576
12.6906956665916,5.76953714668751,-10.8731313943863,3.0924841850996,12.6915721501194
12.7006676666206,7.41814205825329,-12.0808924984932,2.7857585477829,14.4477418942588
12.7106406666571,9.03391134560108,-12.8956388497353,2.03441355586052,15.8760163157906
12.7206126666861,10.4622662615776,-13.6290831756592,0.335116719827056,17.1849709558407
12.7305856666062,12.6112302803993,-14.6098588764668,-7.26882229685783,20.6234546853536
12.7405576666351,14.2816301035881,-14.3594811022282,-10.6340422546864,22.8744947619705
12.7505306666717,12.3048315024376,-11.4768119716644,0.174866100400686,16.8272597142075
12.7605026667006,11.189844660759,-10.8052510678768,0.255906316637993,15.5573636010304
12.7704756666208,12.4116449296474,-10.9557958209515,-1.7952501565218,16.6523666502546
12.7804476666497,14.9516485118866,-11.4359773564339,-4.15211602091789,19.2762402654416
12.7904206666863,16.4028970313072,-12.0330423939228,-3.01696330189705,20.5657775889609
12.8003929166589,17.54724391222,-12.8684142136574,-1.39133809402585,21.8045333584805
12.8103659166954,19.1275814116001,-13.5345617651939,-1.09791136398911,23.4574965031739
12.8203389166156,19.837787733078,-13.7740134322643,-1.25160323470831,24.1832127483507
12.8303109166445,17.8181828355789,-12.279267475605,-1.23060164406896,21.6744649231753
12.8402839166811,14.1892978906631,-9.31526065170765,-0.702319085374475,16.9883344603558
12.8502559165936,11.4773569321632,-7.06013107717037,-0.195885890498757,13.4764069490795
12.8602289166301,9.4850865983963,-5.54350542426109,0.156922895908356,10.9873538653831
12.8702009166591,7.98218728423119,-4.23608086824417,0.39095653295517,9.04502857781592
12.8801739166956,6.6169501376152,-2.95299066960812,0.423386360406876,7.25833583052321
12.8901459166082,5.24647447049618,-1.54537582755089,0.532325835227966,5.49518440207405
12.9001189166447,3.64084600925446,0.266717233657837,0.822141909599304,3.74203354679695
12.9100909166737,1.6856698268652,2.32803032040596,1.47511451482773,3.23066104223093
12.9200639165938,-0.381492814421654,4.40366674661636,1.8769550549984,4.80216387279674
12.9300369166303,-1.90453286290169,5.92039998829365,1.79565302968025,6.47323344629713
12.9400089166593,-2.83858580231667,7.24177892446518,1.80032495498657,7.98386505969942
12.9499819166958,-3.79973123073578,8.61706100285053,2.1987928211689,9.67090417815729
12.9599539166084,-4.66111555874348,9.65682049155235,2.7475744754076,11.0692974373235
12.9699269166449,-5.24670426607132,10.3541442275047,3.1555253559351,12.0288631470946
12.9798989166738,-5.87278377234936,11.0882902193069,3.66997566819191,13.073197414155
12.989871916594,-6.8589675629139,11.4191058003902,4.20167117357254,13.9676574256545
12.9998439166229,-7.1815303838253,12.0936908841133,4.53492211997509,14.7782697393345
13.0098169166595,-6.4904222381115,13.3142223072052,4.29906239748001,15.423230335182
13.019789916696,-4.84303647100925,14.8323980569839,3.59576865434647,16.0120138207512
13.0297619166086,-3.60244061976671,15.9860724163055,3.23696888387203,16.7035941423834
13.0397349166451,-3.77942268133163,16.0619131422043,2.41442717090249,16.6762870014722
13.049706916674,-4.10921149134636,15.8104887163639,0.906263169944286,16.3608827837645
13.0596799165942,-4.24225669741631,15.0455010008812,-0.178363612443209,15.633158856499
13.0696519166231,-4.14624775528908,14.1377032291889,-0.895612174272537,14.7603571844168
13.0796249166597,-3.87316816627979,13.4504413819313,-1.36669076442719,14.0635574681026
13.0895969166886,-3.78230828225613,12.8874539172649,-1.79659560084343,13.5506486990336
13.0995699166087,-3.5958908611536,12.3713014805317,-3.83272005200386,13.4413271072676
13.1095419166377,-1.79999020189047,12.1333829534054,-17.1917565894127,21.11907766098
13.1195149166742,0.333765501379967,11.7768489789963,-20.0379098582268,23.244857555391
13.1294879165944,-1.6050264903903,11.1604460299015,-5.0005820953846,12.3344025762856
13.1394599166233,-2.69920601516962,10.6877933692932,-1.75152599349618,11.1616523652606
13.1494329166599,-2.89616450428963,10.5564637362957,-0.527012616544962,10.9592170226541
13.1594049166888,-2.99560079187155,10.3947355985641,-0.00889719642698765,10.8177738665782
13.1693779166089,-3.12044410854578,10.0002274668217,0.138360325098038,10.476681936677
13.1793499166379,-3.34886500328779,9.20855539798737,0.231090733408928,9.80131584304452
13.1893229166744,-3.63380391508341,8.0271178740263,0.546790019497275,8.82825756206794
13.199294916587,-3.77354272127152,7.54640716552734,0.16485237814486,8.43890171075382
13.2092679166235,-3.99735513299704,7.4053448420763,-0.655098725929856,8.44080177649486
13.2192409166601,-4.47546909302473,7.45342240333557,-1.79404913842678,8.87704576062634
13.229212916689,-5.09126422405243,7.66226097285748,-2.96111654520035,9.66433783606255
13.2391859166091,-5.60292950749397,8.00145502924919,-3.87960887432098,10.5103504541359
13.2491579166381,-6.11383816123009,8.3788887065649,-4.46568699359894,11.292792096887
13.2591309166746,-6.23880017638207,8.78400953471661,-4.07855044662952,11.5202441333732
13.2691029165871,-5.84469024002552,9.20648548364639,-2.71852433860302,11.2387790058359
13.2790759166237,-5.33867512106896,9.58881386518478,-1.49089731931686,11.075629923676
13.2890479166526,-4.96342654824257,9.82772641897202,-0.696433131918311,11.0319911517909
13.2990209166892,-4.60322958558798,9.87558237075806,-0.164073455929756,10.8969614975093
13.3089929166017,-4.24701019138098,9.81605771541596,0.169570971541107,10.6967676871315
13.3189659166383,-3.86917071729898,9.73271618127823,0.369408958554268,10.4801101751642
13.3289389166748,-3.50972687602043,9.61270792722702,0.448921151161194,10.2432351646535
13.3389109165873,-3.22001137375832,9.46461666584015,0.417256139516831,10.0060753827061
13.3488839166239,-3.07830000936985,9.26887293577194,0.230483792424202,9.76939400504157
13.3588559166528,-3.05439893066883,9.05608164846897,-0.00582514241337776,9.55730095705328
13.3688289166894,-3.12207138866186,8.81867065966129,-0.213901161924005,9.35745882526578
13.3788009166019,-3.28585540741682,8.58542815089226,-0.458075551986694,9.20414338783961
13.3887739166385,-3.42144912242889,8.32133046984673,-0.894429209455848,9.04161813485268
13.3987459166674,-3.43943281888962,8.02227287113667,-1.30606741726398,8.82566554051698
13.4087189165875,-3.52508283376694,7.74133228540421,-1.32511823058128,8.60873816903376
13.4186909166165,-3.68431596457958,7.49785597980022,-1.19280619226396,8.43888707312672
13.428663916653,-3.58095531821251,7.21041913747788,-1.0710490360111,8.12160890259325
13.4386369166896,-3.39832338452339,7.03524942040443,-0.42268754504621,7.82444892588843
13.4486089166021,-3.27388703405857,6.78099318802357,0.115301172360778,7.53083655964904
13.4585819166387,-2.96296485006809,6.28970369696617,0.579164298400283,6.9767445547985
13.4685539166676,-1.38216015815735,4.87376475870609,1.41628801703453,5.26021115290999
13.4785269165877,0.713785402178764,2.56612426400185,2.18815556645393,3.44710140867162
13.4884989166167,3.94812362372875,-2.80620216786861,2.37939050853252,5.39666099984891
13.4984719166532,13.2830028533936,-13.8353331828117,3.40460329413414,19.4793719784058
13.5084439166822,28.8738058304787,-29.4303625273705,9.12708497285843,42.227320323819
13.5184169166023,48.5722216701508,-38.7746668839455,17.0987145245075,64.4600771666138
13.5283899166388,66.201314907074,-42.1260359573364,20.6880874943733,81.1493312669872
13.5383619166678,66.8887042236328,-38.6659133505821,17.1886026012898,79.1492240475952
13.5483349165879,39.8428151893616,-29.1153239035606,6.78266022920609,49.8112084576125
13.5583069166169,20.1614966082573,-17.7510462749004,0.647245769128203,26.8701417269072
13.5682799166534,9.44114243388176,-10.3475719571114,-4.25756704688072,14.640160279967
13.5782519166823,-51.0565071344376,-8.84435572385788,-51.7510581207275,73.2336095351986
13.5882249166025,-19.6807829761505,-5.94497758984566,-29.7355357289314,36.1507684867785
13.5981969166314,23.9691636800766,0.776367566585541,9.34529838323593,25.7382624897731
13.608169916668,11.056261510849,2.08343661189079,6.82186405599117,13.1574866866918
13.6181429165881,7.2989646935463,1.63090129673481,9.9319483602047,12.4329531032293
13.6281149166171,3.15397525906563,-1.03565357387066,4.44561934947968,5.548303313657
13.6380879166536,2.82240363299847,-4.23794905364513,-5.46414759814739,7.46880736283877
13.6480599166825,4.64980704367161,-6.73512353539467,-14.0078470945358,16.2235130229029
13.6580329166027,3.90303165078163,-7.31903526127339,-14.9604684519768,17.1060676230792
13.6680049166316,1.52777336955071,-7.57669632732868,-16.2297118592262,17.9762055434058
13.6779779166682,1.57734840273857,-8.21608994364738,-11.1190606069565,13.914944151052
13.6879499166971,1.63179124295712,-7.43029140293598,-0.043725771009922,7.60748874045741
13.6979229166172,1.5974973231554,-7.96636237978935,2.13233395278454,8.40010567491919
13.7078949166462,2.04946253478527,-8.6702718347311,2.88189671337605,9.36371929503376
13.7178679166827,2.84313727498055,-8.60992096781731,4.09277379870415,9.9481136907357
