"Time (s)",Linear Acceleration x (m/s^2),Linear Acceleration y (m/s^2),Linear Acceleration z (m/s^2),Absolute acceleration (m/s^2)
0.00653424998745322,0.0798673744127154,0.106659060716629,0.498841754794121,0.516331336502649
0.0165072500240058,-0.00306858222931623,0.0614635920524597,0.377096292972565,0.382084811944337
0.0264792499365285,-0.0133923896402121,0.0691713917255402,0.187844141721725,0.200622678460575
0.0364522499730811,0.0224495439603925,0.124035231471062,0.0493294501304627,0.13535920847982
0.0464242500020191,0.00713391372933984,0.0989647096395493,0.281389944255352,0.29837092218775
0.0563972500385717,-0.0530042058974505,0.0609776884317398,0.544535990953446,0.550497202329811
0.0663702499587089,-0.323537149764597,-0.0729943013191223,0.603922067284584,0.689003859681607
0.0763422499876469,-0.511340872608125,-0.08759596824646,0.616636837720871,0.805843366472089
0.0863152500241995,-0.461813859678805,0.0339366549253464,0.810379358232021,0.933347974652273
0.0962882499443367,-0.0879629541188479,0.0543030917644501,0.827094501256943,0.833529616199667
0.106260249973275,-0.18656656164676,-0.118072240948677,0.28780463218689,0.362739082972276
0.116233250009827,-0.689330445975065,-0.00864627778530121,-0.0283923250436783,0.689969090604144
0.126206249929965,-0.659108380973339,0.0304160463809967,0.246537030637264,0.704364608155596
0.136178249958903,-0.207791077382863,0.042982297539711,0.502525500655174,0.545487386243217
0.146151249995455,-0.0332195304706693,0.159627233147621,0.58834566950798,0.610520284344305
0.156123250024393,-0.115508529245853,0.151677358746529,0.434639911651611,0.474615733288925
0.16609624994453,-0.302794883139432,0.129825729131699,0.075986760109663,0.338102719468452
0.176069249981083,-0.633576733097434,0.0817505067586899,0.0931616404652596,0.645586332981034
0.186041250010021,-0.814523133784533,-0.0116178327798843,0.425880490243435,0.919215481526865
0.196014249930158,-0.678401122838259,-0.0119669115543365,0.432872590720654,0.804829155931599
0.205987249966711,-0.134360025599599,0.159899128675461,0.174649753421545,0.272255182137095
0.215959249995649,0.685142085403204,0.324861361384392,-0.242992156147957,0.796241024602855
0.225932250032201,0.917321278005838,0.201989141106606,-0.858251974582672,1.27234994874928
0.235905249952339,0.478141515031457,0.0901494473218918,-1.15955665826797,1.25750462225099
0.245877249981277,-0.019962248057127,0.171678344607353,-0.835555422306061,0.853243698540854
0.255850250017829,-0.00721546411514282,0.158266586065292,-0.511902095675469,0.535858312190915
0.265822249930352,-0.0457692267000675,0.0173159444332123,-0.0683353860676289,0.084049919889005
0.275795249966905,-0.39343129388988,-0.00350657522678375,0.344955317974091,0.523253906321102
0.285768250003457,-0.487898252159357,0.11152277469635,0.782867770045996,0.929173815339691
0.295740250032395,-0.655494874790311,0.154324977993965,0.843539210557938,1.07937395255672
0.305713249952532,0.438161908909679,-0.126363008022308,-0.404793530255556,0.609763290427175
0.315686249989085,0.897870807498694,0.203660860061646,0.547845807373524,1.07134717133904
0.325658250018023,1.90204370319843,0.542940285801888,1.14890873238444,2.28747583116689
0.33563124993816,2.18430780619383,0.0646070551872253,1.03913968384266,2.41974914946072
0.345604249974713,1.35830614954233,-0.47992776632309,0.42517999380827,1.5020333830868
0.355576250003651,0.223930013850331,-0.892212018370628,0.0959332206845284,0.924873028939057
0.365549250040203,-0.634353535696864,-0.697527803778648,0.143809053003788,0.953745505374061
0.375521249952726,-1.0256084228307,-0.483292254209518,0.413540672510862,1.20683881599033
0.385494249989279,-0.735814056247473,-0.57836096405983,-0.0594632595777512,0.937795078553511
0.395467250025831,-0.361887611970305,-0.433073442578316,-0.409150875359774,0.697079399474603
0.405439249938354,-0.0093233122676611,-0.204357848167419,-0.46996542647481,0.512558832077751
0.415412249974906,0.248409528359771,-0.0576482838392258,-0.252708035856485,0.359015277942283
0.425385250011459,0.127583029568195,-0.0873188102245331,0.331317126005888,0.365613241058948
0.435357250040397,0.0856140545010567,-0.146140630245209,0.829910666495562,0.847017452299351
0.445330249960534,0.0577230551093817,-0.122850000858307,0.961479889154434,0.971013723409958
0.455303249997087,0.241487229019403,-0.14437652528286,0.713727368563414,0.767181477532322
0.465275250026025,0.0947159765660763,-0.240153332948685,0.17160773947835,0.309990251124284
0.475248249946162,-0.340564936101437,-0.141788547635078,0.0989319652318955,0.381937169815777
0.4852202499751,-0.420007108300924,-0.0554011988639832,0.249016542434692,0.49141072664829
0.495193250011653,-0.310463469922543,0.00227690577507019,0.366540460735559,0.480358886471865
0.50516624993179,-0.5720184892416,-0.277777242064476,0.00248930588364601,0.635902150402852
0.515138249960728,-0.527564155161381,-0.153437955379486,0.0937431460618973,0.557364262754405
0.525111249997281,-0.0392973091453314,-0.0125387692451477,0.255058981999755,0.258372954348937
0.535084250033833,0.215166060850024,0.150621351599693,0.272438076362014,0.378425330483134
0.545056249946356,-0.139550379663706,-0.100915340781212,0.484216041192412,0.513929361894536
0.555029249982908,-0.177150169014931,-0.24871541082859,1.02106184720993,1.06574332453617
0.565002250019461,0.222282633930445,-0.320285915136337,0.955906907916069,1.03235200071654
0.574974249931984,0.532648747712374,0.00924210906028748,0.211777964830399,0.573280046231463
0.584947249968536,0.369325562641025,-0.233669355511665,-0.631746700778604,0.768183983736967
0.594919249997474,0.29147631816566,-0.19105660200119,-1.13371613122523,1.18607475962519
0.604892250034027,-0.329522542431951,-0.493438927531242,-1.57519662737846,1.68324433641658
0.614865249954164,-0.363051792606711,-0.159139575362206,-1.32491416275501,1.38294235137631
0.624837249983102,-0.461482505276799,-0.442665799856186,-1.36332744598389,1.50584887621959
0.634810250019655,-0.391603892818093,-0.418348984122276,-1.13012235939503,1.26710142790189
0.644783249939792,-0.491588868498802,-0.0561426258087158,-0.0861581379175186,0.502229862507243
0.65475524996873,-0.22239913970232,0.0177258342504501,0.478811532855034,0.528238645438966
0.664728250005283,0.264456992447376,0.209921473860741,0.574557934999466,0.666424299311653
0.674701250041835,0.449608783721924,0.185151498913765,0.363495669364929,0.607089974877678
0.684673249954358,0.376524727642536,-0.00345161139965057,-0.198475549221039,0.425646952046098
0.69464624999091,0.490287863016129,0.467667324542999,-0.298861716985703,0.74054928326599
0.704618250019848,0.34853834554553,0.473315150141716,-0.427136764526367,0.72660307271532
0.714591249939986,0.136174343526363,0.197041811943054,-0.631339076757431,0.675246590016983
0.724564249976538,-0.0228899489343166,0.0904342067241669,-0.689737558364868,0.69601738119617
0.734536250005476,-0.167885986715555,-0.0301575994491577,-0.590689233541489,0.614824329350932
0.744509250042029,-0.301968708112836,-0.134001225829124,-0.452845802307129,0.560545047137365
0.754482249962166,-0.332325259074569,-0.23345476269722,-0.437920199632645,0.597256482000229
0.764454249991104,-0.411050928086042,-0.297454876899719,-0.482984690666199,0.700511584978969
0.774427250027657,-0.295002554655075,-0.245332211852074,-0.327052313089371,0.504160308753435
0.784400249947794,0.0665306429564953,-0.100784947872162,-0.252858163118362,0.280216314345527
0.794372249976732,0.00909885227680206,-0.0321965235471726,-0.265279988050461,0.267381520119344
0.804345250013284,-0.282620125338435,-0.0366626268625259,-0.159510873556137,0.326591491373268
0.814317250042222,-0.385872452035546,-0.0487277716398239,-0.0429524721717462,0.391301494802374
0.82429024996236,-0.252617038562894,0.0397593122720718,-0.115449764728546,0.280579434849583
0.834263249998912,-0.0762156055122614,0.0858868271112442,-0.34890160381794,0.367311441070882
0.84423525002785,-0.0296208250522614,-0.0199863678216934,-0.533333895206452,0.534529598760973
0.854208500008099,-0.0816843601316214,-0.0746508175134659,-0.462183220982552,0.475245630178066
0.864181499928236,-0.14845605455339,-0.144392312765121,-0.440497067570686,0.486750456247956
0.874153499957174,-0.301242410838604,-0.289188668131828,-0.422048517465591,0.593718811356537
0.884126499993727,-0.458927491307259,-0.299101452827454,-0.110459166169167,0.558817813559889
0.894099500030279,-0.521222557425499,-0.267039415240288,0.181267193555832,0.613058560922739
0.904071499942802,-0.42458489343524,-0.209357802271843,0.320848380737007,0.571879973881818
0.914044499979354,-0.340613029450178,-0.112799221873283,0.236637402176857,0.429811773216437
0.924016500008293,-0.395358389988542,-0.0298675775527954,-0.0724131246283651,0.403043408755989
0.93398949992843,-0.35965251378715,0.0737725657224655,-0.533333931751549,0.647485447623542
0.943962499964982,-0.439595207646489,0.174921210408211,-0.981884917616844,1.08992631305051
0.95393449999392,-0.639162797480822,0.215273430347443,-1.29392450451851,1.45914781803988
0.963907500030473,-0.889164230301976,0.215189230442047,-1.2477689230442,1.54720610089983
0.97388049995061,-0.925389046892524,0.28375017285347,-0.903714076280594,1.32421983838437
0.983852499979548,-0.737812707647681,0.354721337556839,-0.590076518431306,1.00915069067435
0.993825500016101,-0.597774597108364,0.340706146359444,-0.471263946890831,0.833969336818983
1.00379849993624,-0.744209780842066,0.305790082812309,-0.530512028932571,0.96374207415133
1.01377049996518,-0.872396389245987,0.338247976899147,-0.378597273230553,1.00936764815572
1.02374350000173,-0.617429720163345,0.378865075707436,-0.0435921621322632,0.725712395878115
1.03371550003067,-0.332960924506188,0.575965359807015,0.101678329333663,0.673006356286271
1.0436884999508,-0.286989018693566,0.551289525032044,-0.164649991393089,0.642956030321279
1.05366149998736,-0.654959196746349,0.387624789476395,-0.711763873547316,1.04203279147363
1.06363350001629,-0.716145411506295,0.627527861595154,-0.857960856333375,1.2816989890376
1.07360649993643,-0.540262114852667,0.813670463562012,-0.91710639283061,1.33978614405026
1.08357949997298,-0.367976171448827,0.699928085803986,-1.03688156224787,1.30400504683876
1.09355150000192,-0.481458713561297,0.6092956584692,-0.675530651584268,1.0292644720981
1.10352450003847,-0.477865672633052,0.540531817674637,-0.24966602191329,0.763454890283436
1.11349749995861,-0.368683684542775,0.332833455204964,-0.265835473537445,0.563359802561905
1.12346949998755,-0.537339968830347,0.226812910437584,-0.393716418743134,0.703698057999086
1.1334425000241,-0.624793703556061,0.0489540588855743,-0.647129044085741,0.900854967008561
1.14341449993663,-0.544050306603313,-0.0251307481527329,-0.847906057387591,1.00775342855901
1.15338749997318,-0.640226259827614,0.026724699139595,-0.828150069862604,1.0471085958631
1.16336050000973,-0.573047745376825,0.141845265626907,-0.588123475313187,0.833302478141456
1.17333250003867,-0.0920944505184889,0.287604657411575,-0.560843729227781,0.636979996071507
1.18330549995881,0.138519807904959,0.288499281406403,-0.72665044605732,0.79400279804881
1.19327849999536,0.101369377076626,0.150063527226448,-0.845343661308289,0.864523405424427
1.2032505000243,-0.0119386987388134,0.0648912298679352,-0.840610340237618,0.843195794792498
1.21322349994443,-0.246688802428544,-0.0584540301561356,-0.923714623600245,0.957873136035282
1.22319549997337,-0.509340028502047,-0.245975405573845,-0.912934696823359,1.07395573719108
1.23316850000992,-0.559123624563217,-0.339408064484596,-0.776486265063286,1.01525759372379
1.24314149993006,-0.466694238223136,-0.330006911158562,-0.716061869412661,0.916216499649423
1.253113499959,-0.250062207318842,-0.332035310268402,-0.603064426928759,0.732437886664199
1.26308649999555,0.147622168511152,-0.0733685231208801,-0.316109248995781,0.356511293119237
1.2730595000321,0.307289126180112,-0.0458374929428101,-0.350016229301691,0.468016071948809
1.28303149994463,0.4055448609218,-0.121165418028831,-0.602382056862116,0.736214530674054
1.29300449998118,0.473074537217617,-0.0636188757419586,-0.697505584359169,0.845198745459646
1.30297750001773,0.415387881025672,-0.122265864014626,-0.711863714754581,0.83321424711201
1.31294949993026,0.275786703675985,-0.163275310993195,-0.605092095136643,0.684728834431004
1.32292249996681,0.271104216836393,-0.229061749577522,-0.4364942099154,0.562577973969528
1.33289449999575,0.39876680508256,-0.236607581377029,-0.217821646928787,0.51229325807745
1.3428675000323,0.662805721610785,-0.210619631409645,-0.00478156059980393,0.69548178772481
1.35284049995244,0.716480383872986,-0.270215038061142,0.300838952958584,0.822717681155804
1.36281249998137,0.79306407161057,-0.323929899930954,0.729250410497189,1.1250277165293
1.37278550001793,1.0585280276835,-0.365000157952309,0.876654331684113,1.42205116573112
1.38275849993806,1.05150427915156,-0.497936021089554,0.72004163056612,1.36823297720851
1.392730499967,0.842526180446148,-0.557397526502609,0.500230907052755,1.12728582340914
1.40270350000355,0.55726947247982,-0.564407168626785,0.210456494092941,0.82060749013224
1.41267650004011,0.299697430282831,-0.560242196917534,0.149145514369011,0.652636386804716
1.42264849995263,0.14455822750926,-0.58645994246006,0.125720399022102,0.616958640413726
1.43262149998918,0.181445825994015,-0.620839231610298,-0.152814642190933,0.664617374242548
1.44259350001812,0.274586197212338,-0.627515582442284,-0.323536674678326,0.75752845871909
1.45256649993826,0.36134309001267,-0.60786016702652,-0.204517184793949,0.736131842969352
1.46253949997481,0.409551994353533,-0.668186475634575,0.0256476420164108,0.784132516760345
1.47251150000375,0.45219449557364,-0.733434970378876,0.176441925019026,0.879510358384812
1.4824845000403,0.52982139967382,-0.690978337526321,0.359506406486034,0.942022629657837
1.49245749996044,0.523776036500931,-0.542232772707939,0.431179529428482,0.868489207077055
1.50242949998938,0.609852094128728,-0.376827321052551,0.481696841418743,0.863684116814493
1.51240250002593,0.667990593910217,-0.166618748903275,0.597472588419914,0.911562798139442
1.52237449993845,0.629080443531275,-0.0429249948263168,0.623472232818604,0.886736930949738
1.532347499975,0.60929785117507,0.066629022359848,0.594230307340622,0.853693713359374
1.54232050001156,0.75692477054894,0.172632610201836,0.557079730331898,0.955549555136898
1.55229250004049,1.02682025827467,0.239481487870216,0.46780561119318,1.15349612730153
1.56226549996063,1.14480120956898,0.28742690205574,0.285610756874085,1.214395955979
1.57223849999718,1.12647274665535,0.299040641784668,0.150093640387058,1.1751145711295
1.58221050002612,1.17047991491854,0.327098506093025,0.00429624170064926,1.21533333765217
1.59218349994626,1.21248199984431,0.396374562978745,-0.18121456861496,1.2884347534902
1.60215649998281,1.15945805959404,0.498577460646629,-0.399636432230473,1.32386999142223
1.61212850001175,1.14731375813484,0.507892659902573,-0.50947608590126,1.35419706678669
1.62210149993189,1.12107554733753,0.439366216063499,-0.520806820392609,1.31190426435147
1.63207349996082,0.917811274677515,0.423482254743576,-0.191653602719307,1.0288079798695
1.64204649999738,0.894067193716765,0.370002450942993,0.344683422446251,1.02716338636736
1.65201950003393,1.02467747300863,0.0896103340387345,0.568753111660481,1.17536123710176
1.66199149994645,1.09795726463199,0.16708184838295,0.811580083966255,1.37553216309467
1.67196449998301,0.873404595404863,0.175960260629654,0.796731079816818,1.19523136427273
1.68193750001956,0.959244790971279,-0.127501460909843,0.682528818547726,1.18416754713505
1.69190949993208,1.04226297408342,-0.216912989616394,0.489441186189652,1.17171499390777
1.70188249996863,1.00003818333149,-0.465584546327591,0.256434904932976,1.13252116905955
1.71185449999757,0.896931159943342,-0.679149420261383,0.0601959156990051,1.12665566566965
1.72182750003412,0.740938556045294,-1.04913082122803,0.00626967698335648,1.28440832009706
1.73180049995426,0.576141799539328,-1.55577802419662,-0.000884683728218079,1.65903146938654
1.7417724999832,0.568479023426771,-2.10311600089073,-0.067118726670742,2.17962616903651
1.75174550001975,0.657692623883486,-2.61571157634258,-0.359949040710926,2.72104207061046
1.76171849993989,0.691661584675312,-3.04714779853821,-1.03917739838362,3.29293108326961
1.77169049996883,0.611494211554527,-3.40509621441364,-1.84579114973545,3.9211669651547
1.78166350000538,0.543641805499792,-3.74626662969589,-2.46325302958488,4.51637858922602
1.79163650004193,0.477466819435358,-4.07161623358727,-2.93604573100805,5.04245950423439
1.80160849995445,0.554867874830961,-4.45219103515148,-3.08645015090704,5.44573759063332
1.81158149999101,0.671662937700749,-4.89229809343815,-2.82116694688797,5.6872396361638
1.82155350001995,0.693085966408253,-5.4355015039444,-2.27515687286854,5.93307538738341
1.83152649994008,0.319436607062817,-6.22003704607487,-1.69007979691029,6.45346963426651
1.84149949997664,-0.337480529844761,-7.15359881937504,-0.888863317966461,7.21650519119986
1.85147150000557,-0.895459561944008,-8.01921536207199,-0.102783526182175,8.06971048449836
1.86144412495196,-1.4160933047533,-8.64349275648594,0.365463842153549,8.76634764877105
1.87141712498851,-1.84657146066427,-8.91050819814205,0.272017149925232,9.10389893607953
1.88138912501745,-2.29692810326815,-8.78487901568413,-0.465899126529694,9.09214166343065
1.89136212493759,-2.51086632192135,-8.29239903151989,-1.52902759730816,8.79808256257242
1.90133412496652,-2.23935349434614,-7.28786784768105,-2.50260771453381,8.02438578401784
1.91130712500308,-1.53511162519455,-5.85610108137131,-3.03171261101961,6.77065498551366
1.92128012503963,-0.745301748365164,-4.26386566758156,-3.16180380374193,5.36031980581885
1.93125212495215,-0.0954924685321748,-2.47159174382687,-2.89035149484873,3.80421034164434
1.94122512498871,0.703349584043026,-0.430553292632103,-1.9373445135355,2.10555943618221
1.95119812502526,1.82372419640422,1.5365611499548,-0.218215749263763,2.39470420414033
1.96117012493778,2.73192878812552,3.38637810766697,1.79934408456087,4.70835754017463
1.97114312497433,3.00250693827868,5.29307327091694,3.75782628268004,7.15212772093087
1.98111612501089,2.02295812949538,6.78734384894371,5.80966483354569,9.1603821751946
1.99108812503982,0.255101447403431,7.41272753655911,7.61676671147347,10.6314976093088
2.00106112495996,-1.26759595423937,7.74507157981396,7.80829576849938,11.070791122951
2.0110331249889,-2.42317972183228,8.08733483970165,6.54936918854714,10.6850840680662
2.02100612502545,-2.84096298784018,8.65613209784031,4.64533041536808,10.2263770838691
2.03097912494559,-2.34154528230429,9.48541930496693,3.2356234395504,10.2920004247322
2.04095112497453,-1.42535295546055,10.8389017939568,2.53800851225853,11.2229635281852
2.05092412501108,-1.84900229439139,14.3549834239483,2.8559216272831,14.7526488105587
2.06089712493122,-1.36038308054209,17.0860845386982,4.59522094666958,17.7454496290761
2.07086912496015,0.103412467315793,18.0236902463436,8.21912815690041,19.8095474934207
2.08084212499671,0.459465435147286,18.7080752635002,12.6676909947395,22.5980880538396
2.09081412502565,-0.0987455852329731,18.7255584383011,14.8584661138058,23.9046084421382
2.10078712494578,-0.492569556199014,18.4596621537209,13.9873865175247,23.1656800717752
2.11076012498233,-0.626704865992069,18.4740790486336,11.3213707602024,21.6762033477772
2.12073212501127,-0.589645505547524,18.6844618678093,7.91676746606827,20.3010345604264
2.13070512493141,-0.262882775813341,19.3125990092754,4.98597282707691,19.9475690969911
2.14067812496796,-0.277607398722321,20.0858827543259,2.98422181785107,20.3082577230665
2.1506501249969,-0.462612296976149,20.9108710885048,2.0702761374414,21.0181964759738
2.16062312503345,-0.525151082351804,21.2391127252579,3.88896968185902,21.5986059319097
2.17059612495359,-0.577975705638528,20.4377307701111,7.36970606267452,21.733556137873
2.18056812498253,-1.212409786731,19.035669028759,9.2512260389328,21.1993352746459
2.19054112501908,-1.71442526400089,17.6781677484512,7.94592811524868,19.4575086416768
2.2005131249316,-2.1260404483974,17.1638185930252,4.95323777496815,17.9903107571234
2.21048612496816,-1.41519297972322,15.7863338685036,3.27882734656334,16.1852345347941
2.22045912500471,-0.537336752861738,12.5173941636086,2.93106244146824,12.8672069412481
2.23043112503365,-0.0709119981899858,7.91578513383865,3.2106301009655,8.54241350215582
2.24040412495378,0.286159079521894,2.64833260774612,2.40002942562103,3.58548376985464
2.25037712499034,0.324300723038614,-2.87712538540363,0.505368416905403,2.93911869088386
2.26034912501927,-0.0993015458062291,-8.17340117633343,-1.50619714379311,8.31161701609613
2.27032212493941,-0.180014573782682,-13.0293015217781,-3.03664736866951,13.379698450781
2.28029412496835,-0.0164117456227541,-17.7188491666317,-4.89608182668686,18.3828589286012
2.2902671250049,-0.309430851638317,-21.6621470832825,-6.29140406727791,22.5593911453184
2.30024012504146,-1.02545471414924,-24.1942510771751,-5.87841288685799,24.9192512051333
2.31021212495398,-1.97669072002172,-24.5532350349426,-4.1641238629818,24.982165327089
2.32018512499053,-1.73303972885013,-23.2811522197723,-2.97849183887243,23.5348016566151
2.33015812502708,-0.6293189368397,-21.5174776124954,-1.52429193735123,21.5805780978819
2.34013012493961,-0.494471655450761,-19.0896879458427,-0.408834687173367,19.100466850031
2.35010312497616,-2.16910943090916,-17.401311442852,-0.0883876081556082,17.5362050633444
2.3600751250051,-2.82879025429487,-15.1934566068649,0.445724039822817,15.4609782318958
2.37004812504165,-1.51687152832747,-11.4307815206051,1.40399249196053,11.6161465350063
2.38002112496179,-1.24183560714126,-9.94428481578827,-0.0701700961589813,10.0217703034482
2.38999312499072,-0.136884634047747,-7.04654741048813,0.489838796854019,7.06487861595645
2.39996612502728,1.42275328338146,-3.65024131536484,2.29507190465927,4.54046733424275
2.40993912494741,3.41633105456829,-1.70133100926876,3.32894734025002,5.06435933476929
2.41991112497635,4.37331121891737,-1.15720607757568,4.01814227700234,6.05065651658728
2.4298841250129,3.18521693229675,-2.21904055953026,3.79367234587669,5.42786309504025
2.43985612504184,1.13674937434495,-4.67423788011074,2.08271389603615,5.24198398248963
2.44982912496198,-0.300571589022875,-7.16392207860947,0.716368117332459,7.20592160018733
2.45980212499853,-1.98776827007532,-9.21468386471272,-0.110067987442017,9.42728679864863
2.46977412502747,-3.83522324502468,-10.9336851596832,0.0860803699493408,11.5871402140626
2.47974712494761,-5.38035115063191,-11.9618689155579,0.683703231811524,13.1339992601753
2.48972012498416,-6.29939370274544,-12.4794878339767,1.27736635923386,14.0375084126872
2.4996921250131,-5.17044020175934,-12.2801211690903,1.63147607803345,13.423730554533
2.50966512493324,-3.3386437779665,-11.4502890014648,1.11935003399849,11.9795077107464
2.51963712496217,-2.1129473631084,-10.3661918306351,0.486398295164108,10.5905175950154
2.52961012499873,-0.541392747089267,-9.39417759776116,0.328036984205246,9.41548124674915
2.53958312503528,1.21885634198785,-8.87152598083019,0.498392103910446,8.96872224456691
2.5495551249478,2.33844172641635,-8.63753210484982,0.74001425743103,8.97902509581957
2.55952812498435,2.55687689244747,-8.67368310034275,0.707411352396011,9.07032682927148
2.56950112502091,2.29545080423355,-8.94527457296848,0.386905581951141,9.24319898681176
2.57947312493343,1.59762406155467,-9.34245839059353,-0.0160494283866137,9.47808994503541
2.58944612496998,0.935828519538045,-9.73173735737801,-0.570944355726242,9.79328670407964
2.59941812499892,0.42608280390501,-10.1104743790627,-1.16495012998581,10.1862823213781
2.60939112503547,0.14000273488462,-10.4216094017029,-1.51936975121498,10.5327122683734
2.61936412495561,-0.0471577942371368,-10.5106344294548,-1.61525005459785,10.6341286763926
2.62933612498455,-0.160642053969204,-10.4403965055943,-1.4461392223835,10.5412999062755
2.6393091250211,-0.352080954238772,-10.5628103041649,-1.02875035107136,10.61862749158
2.64928212494124,-0.449378147609532,-10.7545030832291,-0.51242717564106,10.7760780851415
2.65925412497018,-0.380229304209352,-10.8080881369114,-0.217033478803933,10.8169518363514
2.66922712500673,0.0379596854746342,-10.8053621649742,-0.551018214225769,10.8194691887535
2.67919912503567,0.790828607976437,-10.5157460653782,-1.13471534729004,10.6063143512761
2.6891721249558,1.30079629853368,-10.2435803961754,-1.76825648546219,10.4761510747777
2.69914512499236,1.25681836634874,-10.4230057168007,-2.49342583179474,10.7905427554462
2.70911712502129,0.862165662199259,-10.6149557733536,-3.26457709729671,11.1390340390683
2.71909012494143,0.261439025178552,-10.8635863995552,-3.47533647716045,11.4089361227929
2.72906312497798,-0.0574319368600845,-11.0738932049274,-2.72388214230537,11.4041195656079
2.73903512500692,-0.0517363102734089,-11.1759212708473,-1.24969265699387,11.2456936039945
2.74900812504347,-0.152060278281569,-10.9759956121445,0.25358840726316,10.9799776450749
2.758980124956,-0.359602081552148,-10.4355479943752,1.41085127592087,10.5366254997856
2.76895312499255,-1.00469994910061,-9.31228734254837,2.35976842224598,9.65901778363301
2.7789261250291,-2.33113943114877,-6.96364032447338,3.28766541302204,8.04582136789463
2.78889812494162,-5.14001246094704,-2.3217691218853,0.470691504478455,5.6596722914334
2.79887112497818,-7.35422672867775,5.87245457410812,-3.06669036269188,9.89823031063578
2.80884412501473,-4.95286647677422,13.3661818349361,-5.16516425907612,15.1612870497385
2.81881612504367,-4.53942856907845,20.0407773327827,-0.203749737739563,20.5494691364904
2.82878912496381,-0.686699929833412,25.1986296486855,9.61478368878365,26.9793728308748
2.83876112499274,3.80704872876406,22.7253112220764,16.3115845727921,28.2312093513325
2.8487341250293,4.45461061298847,19.7776526284218,15.4199052357674,25.4710144415945
2.85870712494943,3.90545093625784,16.4404829335213,6.57253995001316,18.1311970784458
2.86867912497837,2.32554510757327,15.081498799324,-0.934526710063219,15.2883323568397
2.87865212501492,-0.343635820671916,13.8517615199089,0.931363658756018,13.8872899100771
2.88862512493506,-3.15569638699293,12.4061579024792,5.15660276591778,13.800787139638
2.898597124964,-4.19613093674183,12.3132397985458,5.96588372468948,14.3113646376329
2.90857012500055,-2.62027649760246,14.3382171177864,3.61450781106949,15.0171563805187
2.9185431250371,0.865751759558916,17.4193746614456,0.918823573887348,17.465061593505
2.92851512494963,4.21375327527523,20.1713175916672,0.791116875708103,20.6219212480269
2.93848812498618,5.18223286628723,21.0761578416824,4.31100299656391,22.1279170661028
2.94846012501512,4.41868648946285,19.3582786273956,8.14591692388058,21.4621458442256
2.95843312493525,2.41669062808156,15.9444004797935,9.21684324145317,18.5745659327323
2.96840612497181,0.804165668338537,12.7323588609695,7.08184997498989,14.59151272675
2.97837812500075,-0.116147922277451,10.3821453738213,2.99566774249077,10.8063156592063
2.9883511250373,-0.87279458463192,8.74892390191555,-0.138067671954632,8.79343519396777
2.99832312494982,-1.46606287881732,7.92909865915775,-0.839419847130775,8.10706923561533
3.00829612498637,-1.43468511164188,7.45040816366673,-0.118723182231188,7.58821443877265
3.01826912502293,-0.864084279835224,7.23045462191105,0.809000730961561,7.32670443411426
3.02824112493545,0.0413327980041504,7.03164344251156,1.55077339231968,7.20073718567296
3.038214124972,1.03779833257198,6.69483154177666,2.11121629491448,7.09612774657906
3.04818712500855,1.9243826982379,6.22048845112324,2.36221679762006,6.9266004315821
3.05815912503749,2.0908511736989,5.48241897761822,1.83083923459053,6.14658838540718
3.06813212495763,1.61963575869799,4.46597233772278,1.13839997023344,4.88508786045715
3.07810512499418,1.30474390000105,3.28991951465607,0.640398752689362,3.59667035186029
3.08807712502312,1.19693586140871,2.05724985659122,0.329972266405821,2.4028762193188
3.09805012494326,0.968710409849882,0.885246815085411,0.329285803288221,1.35295636367828
3.10802212497219,0.743327728360891,-0.115961980819702,0.331599107980728,0.822156469997899
3.11799512500875,0.575379870794714,-1.20423932611942,0.15299926802516,1.34337750699665
3.12796812492888,0.609848805069923,-2.34364940285683,0.0161587804555893,2.42174920145381
3.13794012495782,0.758250845968723,-3.4632941365242,-0.0758454036712647,3.54613918885783
3.14791312499438,0.810345882922411,-4.47012678444386,-0.283259445279837,4.55180511800669
3.15788612503093,0.656125423908234,-5.02550058960915,-0.39428886115551,5.08346539814052
3.16785812494345,0.319246974550188,-5.15877091348171,-0.214561897292733,5.17309122056767
3.17783112498,0.0589378872513771,-5.45067736744881,0.201722508072853,5.45472725338633
3.18780312500894,-0.0536060305684805,-5.90438446462154,0.699384879469872,5.94590352446192
3.19777612492908,-0.036253175586462,-6.34846295177937,0.971244739294052,6.42243041896615
3.20774912496563,0.0152249435707927,-6.62381009101868,0.90873215675354,6.68587212362797
3.21772112499457,0.135175127461553,-6.67421601355076,0.571475282907486,6.7000011723578
3.22769412503112,-0.0350946228951216,-6.67729340314865,0.285863356590271,6.68350182785415
3.23766712495126,-0.301642945110798,-6.7216445338726,0.160249376893044,6.73031749391284
3.2476391249802,-0.414916595444083,-6.76018353223801,0.0549749185703695,6.77312774221693
3.25761212501675,-0.444487938433886,-6.72258768975735,0.136724274158478,6.73865330025476
3.26758412492927,-0.335749790556729,-6.60221223056316,0.459497594833374,6.62669391921148
3.27755712496582,-0.127533401325345,-6.50120158016682,0.709971263408661,6.54109669316111
3.28753012500238,0.13742482541129,-6.30109641194344,0.702465777397156,6.34162122360363
3.29750212503132,0.387848445475102,-5.97383593797684,0.473542606830597,6.00511322382892
3.30747512495145,0.285893524568528,-5.75172243475914,0.352678320407867,5.76961247152593
3.317448124988,0.0479145518504083,-5.58924760758877,0.27135411221534,5.59603588957683
3.32742012501694,-0.226038665995002,-5.29034846842289,0.0540376281738281,5.29545092141622
3.33739312493708,-0.489680775851011,-4.7396670538187,-0.250733284950256,4.77148805127651
3.34736512496602,-0.717287957444787,-4.01977189600468,-0.569628732204437,4.12280790267473
3.35733812500257,-0.806575817540288,-3.21249126970768,-0.765365445613861,3.39947774999757
3.36731112503912,-0.59531723164022,-2.24517118155956,-0.859302134513855,2.47660986010583
3.37728312495165,-0.0857898364216089,-1.10078395485878,-0.946422139406204,1.45423522074869
3.3872561249882,0.245020701438189,-0.0785538339614868,-0.972222393751145,1.00569489999429
3.39722812501714,0.450249857828021,0.857628661394119,-0.714843163490295,1.20384907845944
3.40720112493727,0.717260621711612,1.39213433861732,-0.493368212766945,1.64192356995826
3.41717412497383,0.850934476554394,1.98170090675354,-0.396455291099846,2.19280750752495
3.42714612500276,0.753745858669281,2.54634488761425,-0.734174058437347,2.75517996766503
3.43711912503932,0.585771871358156,3.03281744241715,-1.46268801212311,3.41768438348434
3.44709212495945,0.424030211940408,3.47943771421909,-2.32892962217331,4.20834903647556
3.45706412498839,0.0413924578763545,3.98676319420338,-2.49454849720001,4.70305924979758
3.46703712502494,-0.10318184947595,4.21882047235966,-1.88552707314491,4.62215372046676
3.47700912493747,0.371003567352891,3.73670292377472,-0.89794287443161,3.86094467627776
3.48698212497402,1.00025080271065,2.8350453132391,-0.0370391966868192,3.00655209476461
3.49695512501057,1.23004250407219,1.93898231863976,0.38842001080513,2.3288467314565
3.50692712503951,1.23675466910005,0.985071065425873,0.325623838305473,1.61429798970104
3.51690012495965,0.906877273768187,0.0195951890945435,-0.0349563910625875,0.907762254331491
3.5268731249962,0.239483826756477,-0.986176773905754,-0.599245464205742,1.17855515740259
3.53684512502514,-0.529240990430117,-1.95380208671093,-1.26498721897602,2.38697115277083
3.54681812494528,-1.30377443164587,-2.8097338861227,-1.82570713341236,3.59550258189762
3.55679012497421,-1.74254540115595,-3.49618355512619,-2.27606085240841,4.52108581317482
3.56676312501077,-1.95189618676901,-3.93989249825478,-2.66840083658695,5.14324942487
3.5767361249309,-2.03255501836538,-4.19550528466702,-2.9382708889246,5.51062431245797
3.58670812495984,-1.81806116804481,-4.41468348562717,-2.93254763424397,5.60308953311757
3.59668112499639,-1.50159304618835,-4.5756415450573,-2.61487250089645,5.4798572445968
3.60665412503295,-1.25609316542745,-4.64155603766441,-2.01060018539429,5.21194067469307
3.61662612494547,-1.10495360434055,-4.76691507875919,-1.31040780544281,5.06572506680065
3.62659912498202,-1.15711347229779,-5.03454330861568,-0.90030222594738,5.24367066205972
3.63657112501096,-1.40308061867952,-5.30939226508141,-0.714903974533081,5.53799324122227
3.6465441249311,-1.41283494383097,-5.60748741209507,-0.647973235845566,5.81892489809644
3.65651712496765,-1.37691038176417,-5.75574648857117,-0.867667819038034,5.98141682917212
3.66648912499659,-1.50178995117545,-5.70551773667336,-1.15518191769719,6.01188414425298
3.67646212503314,-1.42128007739782,-5.65863710045815,-1.4461374682188,6.0109503799379
3.68643512495328,-1.15167505010963,-5.49586991250515,-1.4129555426538,5.79028366159556
3.69640712498222,-0.640003773272038,-5.18946528732777,-0.833127658367157,5.29473856704169
3.70638012501877,0.0514477501809597,-5.00754495978355,-0.0246053758263588,5.00786968877705
3.71635212493129,0.625582785308361,-4.88258879184723,0.801351988166571,4.98730309290351
3.72632512496784,1.07284647010267,-4.86611192286015,1.41161492228508,5.17906376510575
3.7362981250044,1.51051560491323,-4.93560198783875,1.65741608083248,5.42114862737098
3.74627012503333,1.59118993163109,-4.88391961812973,1.49447508439422,5.34958054549623
3.75624312495347,1.27387834891677,-4.75219354391098,1.31954144865274,5.09384914984147
3.76621512498241,0.613871616348624,-4.57903585374355,1.01663199663162,4.730533619773
3.77618812501896,-0.333734218776226,-3.96068812072277,0.574083725810051,4.01596825717741
3.7861611249391,-1.40448205009103,-2.99853287816048,0.311665949821472,3.32579387736453
3.79613312496804,-1.81853596195579,-1.67189320206642,0.475441197752953,2.51562005409464
3.80610612500459,-1.60756754413247,-0.205739545226097,1.20779443323612,2.02122971538965
3.81607912504114,-0.932797030583024,1.37550427258015,2.27476598650217,2.81721184817506
3.82605112495367,-0.119615467339754,3.00727505028248,3.50639805614948,4.62091315826723
3.83602412499022,0.314929134696722,4.38821781814098,4.48435744553804,6.28212525175066
3.84599612501916,0.370032125562429,5.73209508597851,5.22974149346352,7.76814224490651
3.85596924996935,-0.153798582404852,7.47403208434582,5.65352897286415,9.37268368445211
3.8659422500059,-1.45512668520212,9.33293503046036,5.43001798510552,10.8952358979212
3.87591425003484,-3.00668331205845,11.8311696124077,3.90122106045485,12.8154689613415
3.88588724995498,-4.37086562097073,15.5321624207497,1.60596175253391,16.2151672483429
3.89586024999153,-4.8734197729826,20.0948289942741,0.458210915029049,20.6824159574134
3.90583225002047,-3.96781996965408,24.1544385552406,2.27593162894249,24.5837418228003
3.9158052499406,-1.83967291563749,25.1896062254906,6.68668344676495,26.1268519678327
3.92577724996954,0.764347006827593,24.6082433009148,11.0697592234612,26.9942481645492
3.93575025000609,2.56369503825903,23.6465751314163,13.2390773999691,27.2214293911485
3.94572325004265,2.74915907084942,22.3706846094131,12.4272324371338,25.7379391470494
3.95569524995517,1.89758520126343,20.8312670946121,9.74845980942249,23.0775862476787
3.96566824999172,0.767597035467625,18.8703331589699,6.00516181111336,19.8176852108674
3.97564125002828,0.230331180095673,17.2561718559265,2.62111352652311,17.4556224664925
3.9856132499408,-0.51121022388339,16.3898074543476,0.554523693099618,16.4071515141965
3.99558624997735,-2.09730986192823,15.1952949714661,0.820029310584068,15.3612547012612
4.00555825000629,-3.38014556050301,14.2475069224834,2.18134005188942,14.8045628756265
4.01553125004284,-2.88685953766108,13.6836026144028,2.22288919687271,14.1603734018792
4.02550424996298,-1.66432471230626,13.659336669445,1.32507730007172,13.8240111707277
4.03547624999192,0.21028253942728,14.2785521292686,2.44200541734695,14.4873965954198
4.04544925002847,1.63999605596066,14.9471929335594,4.66507821679115,15.743923222164
4.05542224994861,1.97459507793188,14.520369579792,4.77877849459648,15.4135291985956
4.06539424997754,1.19977241881192,12.0697477054596,3.35304137706757,12.5841626660941
4.0753672500141,-0.530969500467181,7.63377158403397,3.27142243266106,8.32217531301455
4.08533925004303,-1.61005670383573,2.30012097537518,4.67303744673729,5.4516160970428
4.09531224996317,-1.66879359304905,-3.06254293262959,4.69807171583176,5.85114682070954
4.10528524999972,-1.03377055115998,-8.28677167117596,1.9161619515717,8.56801861034983
4.11525725002866,1.12770899422467,-13.595725979805,-1.55701047107577,13.7309786286571
4.1252302499488,4.7353716892004,-19.4400554466248,-3.65721733599901,20.3399788457475
4.13520224997774,2.95433845281601,-23.2068808865547,-4.76866631984711,23.8752510907544
4.14517525001429,2.34389337792993,-26.2544847679138,-4.68774933367968,26.7725008247481
4.15514824993443,-1.27491389080882,-26.3758940148354,-3.6854766368866,26.6626316884107
4.16512024996337,-4.52788733482361,-22.576838722229,-1.76608307540417,23.0940351570622
4.17509324999992,-3.4753525570035,-18.6241911077499,0.951185573637486,18.9695367315325
4.18506625003647,0.274284261614084,-14.5680033373833,1.55720474481583,14.6535606495983
4.19503824994899,3.4753929027915,-10.079254925251,2.27594332337379,10.9018188247732
4.20501124998555,5.28196648478508,-6.43166707634926,3.96137253731489,9.21726552220237
4.21498325001448,6.76063025951386,-4.60970274567604,4.99195277452469,9.58514858582966
4.22495624993462,7.77433338582516,-3.43983744621277,4.50927564740181,9.62321713953157
4.23492924997117,6.78906117618084,-2.71266893684864,2.66196977645159,7.78048889888105
4.24490125000011,4.34023205816746,-3.18299849867821,0.816145297586918,5.4438209842082
4.25487425003666,-0.655489831566811,-2.92032870769501,0.438964512348175,3.02500851624853
4.2648472499568,-3.33399582624435,-3.97373793661594,0.544920591562986,5.21565526175042
4.27481924998574,-2.70657789230347,-6.23368210852146,1.45315938949585,6.94953442530407
4.28479225002229,-2.19206223741174,-7.7891806358099,2.46514635801315,8.45892536888629
4.29476424993482,-1.73978171467781,-9.16528834104538,3.04631281614304,9.81373387467925
4.30473724997137,-0.88014351144433,-10.3830107617378,2.6461878490448,10.7509941499162
4.31471025000792,-0.00738569118082523,-10.7131340324879,1.7128402300179,10.8491989105211
4.32468225003686,0.580573623552918,-10.4256907582283,1.19751108124852,10.5102866901091
4.334655249957,0.717697774171829,-10.0467876756191,1.37403048187494,10.1656771766147
4.34462724998593,0.582585942819715,-10.0597521221638,1.68344613075256,10.2162620373254
4.35460025002249,0.60820237532258,-10.4075573730469,1.78893677160144,10.5776866740984
4.36457324994262,0.388149211630225,-10.8356437253952,2.01392710492015,11.0280432143748
4.37454524997156,0.0212253197282553,-11.1556337714195,2.196496181041,11.3698377661935
4.38451825000811,-0.286038699969649,-11.0881007695198,2.41477157190442,11.3516042283628
4.39449025003705,-0.25510919496417,-10.6056353116035,2.83137501597404,10.9800394145545
4.40446324995719,-0.133217114210129,-9.94964203476906,2.84333958864212,10.3488020290226
4.41443624999374,-0.0933635155856609,-9.24952742278576,2.20911447241902,9.51013464905516
4.42440825002268,0.296996016651392,-8.72026435911656,1.53942570090294,8.86008174992679
4.43438124994282,0.883903563469648,-8.44091187715531,1.23782646372914,8.57685800172324
4.44435424997937,1.35545519337058,-8.24997865140438,1.16330706238747,8.44113083960105
4.45432625000831,1.87904850438237,-8.16676984906197,1.1989752240479,8.46548844646604
4.46429924992845,2.41800215855241,-8.32362667143345,1.47964493751526,8.79311347278522
4.47427124995738,2.58827468633652,-8.6104998421669,1.61051380991936,9.13420101135439
4.48424424999394,2.20008622527123,-9.0778929322958,1.64239648416638,9.48398574967594
4.49421725003049,1.79780889809132,-9.56343636453152,1.35033274009824,9.824196172791
4.50418924994301,1.79685419395566,-10.0941957306862,0.865032552033663,10.2893028801672
4.51416224997956,1.8614105245471,-10.6160667443275,0.42097847700119,10.7862386928442
4.52413525001612,1.70199539914727,-11.0970633816719,-0.0929625427722931,11.2272100750775
4.53410724992864,1.56077695503831,-11.5344561624527,-0.279430249929428,11.642928537593
4.54408024996519,1.2163737604022,-11.8525645744801,-0.169957509040833,11.9160286031922
4.55405224999413,0.69066390350461,-11.9801940894127,-0.0165952751040459,12.000097601718
4.56402525003068,0.197815398573875,-11.9756566500664,-0.0295797483623028,11.9773268342191
4.57399824995082,0.272512262910605,-11.6807336175442,-0.118231723755598,11.6845102386863
4.58397024997976,0.424866290688515,-11.0345426130295,-0.121038387268782,11.0433822869137
4.59394325001631,0.633814056962729,-9.97151179075241,0.364196165800095,9.9982701753404
4.60391524992883,0.240944899767637,-8.2526870816946,1.61068337917328,8.41184875405152
4.61388824996539,-2.01631437689066,-4.64403876543045,1.95757529497147,5.42814155644078
4.62386125000194,-6.44798431634903,1.8302188450098,-1.07081580519676,6.78769837670851
4.63383325003088,-7.93323439478874,9.3512818390131,-6.69614248752594,13.9721510229658
4.64380624995101,-6.28680406272411,15.2247321939468,-11.214623991251,19.9269708426953
4.65377924998757,-2.45490642160177,23.9277957987785,-3.87134675860405,24.3629493914883
4.6637512500165,2.9969441896677,28.1336582565308,7.23727072119713,29.2038094923101
4.67372424993664,6.41767761290073,25.9614176416397,15.7516949629784,31.0370373282227
4.68369624996558,5.98751374483109,22.3298429775238,13.7466133797169,26.8968694768893
4.69366925000213,4.22164029210806,19.408208001852,2.97650232374668,20.0838330674793
4.70364225003868,1.77194286257029,16.8429795312881,-4.78166117191315,17.5980119491546
4.71361424995121,-2.90735607504845,15.6555573821068,-5.09409836947918,16.7182246213373
4.72358724998776,-7.75372662842274,15.5597285342217,-1.36143528699875,17.4378592358027
4.7335592500167,-9.21298349440098,16.3052649021149,2.25178379774094,18.8629599657109
4.74353224993683,-6.8693416929245,18.0878014576435,3.4238751322031,19.6489016941457
4.75350524997339,-3.40613643407822,20.1891726493835,2.97257942676544,20.6891441611924
4.76347725000233,0.111072173640132,21.5803726029396,3.07691889703274,21.7989047570831
4.77345025003888,2.76288160890341,21.4106653547287,4.16244746625424,21.9858153050171
4.78342324995901,3.95833227753639,19.5813183295727,4.24359746396542,20.4231374029462
4.79339524998795,3.16333665132523,15.7386463165283,2.39360333561897,16.2308663839819
4.80336825002451,1.98073801651597,11.9943420124054,-0.049906570315361,12.1568932736282
4.81334024993703,1.6214660833776,8.60354633331299,-1.85728209793568,8.9498412589453
4.82331324997358,1.4009577870369,6.04361485540867,-2.35954213500023,6.63742437459118
4.83328625001013,0.752751685827971,4.05264318823814,-2.11052910089493,4.63086223045064
4.84325825003907,0.140060037598014,2.28487260639668,-1.7535647714138,2.88361735484052
4.85323124995921,-0.277039250358939,0.880316442847252,-1.40302068471909,1.67933761570933
4.86320437502582,-0.116024838387966,-0.0525723159313202,-0.991326416730881,0.999476701096041
4.87317637493834,0.666408775895834,-0.694867905378342,-0.421151554584503,1.05086188171653
4.88314937497489,1.45384877622128,-1.20916034281254,0.0605865279771388,1.89193438737261
4.89312137500383,1.32451099723578,-1.78332008242607,0.225936412811279,2.2328473214299
4.90309437504038,0.933505786210299,-2.78039957463741,0.16636965751648,2.93764084095966
4.91306737496052,0.730351952835918,-3.91950559616089,0.00608930865302682,3.9869756925554
4.92303937498946,0.811498515307903,-4.8514026671648,-0.0168528084084392,4.9188333674228
4.93301237502601,0.978568742349744,-5.55918707191944,0.210253029260784,5.64857185670976
4.94298437493853,0.906161209121347,-6.27936231136322,0.478392287492752,6.36241922188547
4.95295737497509,0.552753960192204,-6.91426058828831,0.727144535779953,6.97432975985362
4.96293037501164,0.127972052134573,-7.45195767581463,0.867426255941391,7.50336446920691
4.97290237504058,0.173408060632646,-7.78538286924362,0.897470419406891,7.83885896862004
4.98287537496071,0.165816803276539,-7.87256719350815,1.17989444375038,7.96222081626368
4.99284837499727,-0.0767080141603947,-7.91873856246471,1.62102476477623,8.0833177488034
5.0028203750262,-0.193137114420533,-7.91579156577587,1.99564534664154,8.16576134890968
5.01279337494634,-0.20345401480794,-7.85231360793114,2.2231686937809,8.16349812117633
5.02276537497528,0.0833459195494652,-7.5693066161871,2.07377467274666,7.84868718866313
5.03273837501183,0.385039369985461,-6.9979055929184,1.536217918396,7.17488003360602
5.04271137493197,0.489144293814898,-6.35504633188248,0.821993390321732,6.4266281325651
5.05268337496091,0.380429571345449,-5.83575803339481,-0.10968550644815,5.84917339402851
5.06265637499746,0.160800476968288,-5.36031332731247,-0.924546463117004,5.44183810148915
5.0726283750264,-0.175047875717282,-4.67760996937752,-1.34894329547882,4.87137812111012
5.08260137494654,-0.472778668105602,-3.81952171683312,-1.35461626410484,4.08010429246029
5.09257437498309,-0.493373657986522,-3.0556326931715,-1.19368678294122,3.31740815362567
5.10254637501203,-0.535505112558603,-2.29937253177166,-1.07259335875511,2.59313252239217
5.11251937493216,-0.450720851048827,-1.27761311173439,-0.981967290267348,1.67323169585112
5.12249237496872,-0.188986102938652,-0.387358741164208,-1.06928376160562,1.15287913689759
5.13246437499765,-0.0795271030068398,0.438168706297874,-1.13742611646652,1.22149684637805
5.14243737503421,-0.165275278016925,1.21769143044949,-1.24209127664566,1.74724900252738
5.15240937494673,-0.026949816942215,1.9855460357666,-1.11125982642174,2.27552581936584
5.16238237498328,0.200376698300242,2.8418087875843,-0.745959706306458,2.94490812927091
5.17235537501983,0.145044752396643,3.43541227340698,-0.520436106920242,3.47763557749507
5.18232737493236,-0.095881911367178,3.52849819242954,-0.454922733306885,3.55899529757843
5.19230037496891,-0.274452040158212,3.12383520126343,-0.4425090944767,3.16693615118684
5.20227237499785,-0.221573220491409,2.4893380433321,-0.58004613161087,2.5656094988942
5.2122453750344,0.0694432872533798,1.73852690219879,-0.437407398819923,1.79405222676373
5.22221837495454,0.222641104795039,0.854872283935547,-0.194273155331612,0.904498613745778
5.23219037498348,0.233925755918026,-0.103710309863091,-0.0771692315675318,0.267267989019339
5.24216337502003,-0.0626919458806515,-0.998084043860436,-0.150916654262692,1.01137425081962
5.25213637494016,-0.660000666081905,-1.7742071968317,-0.351938099451363,1.92542786994564
5.2621083749691,-1.23823050633073,-2.46681690752506,-0.701293483749032,2.84784356880929
5.27208137500566,-1.63064606577158,-2.84633921027184,-1.25180759489536,3.51107900030531
5.28205337503459,-1.57735717356205,-2.76806194961071,-1.91125131368637,3.71525291116745
5.29202637495473,-1.27434978067875,-2.52251572966576,-2.5727877509594,3.82181760179811
5.30199937499128,-1.16425862364471,-2.21655081510544,-3.0874620115757,3.97504934958029
5.31197137502022,-1.00552024036646,-2.01345070302486,-3.07350646197796,3.80939583912176
5.32194437494036,-0.694961460828781,-2.0006716132164,-2.56352342247963,3.3252534750856
5.3319163749693,-0.51221433699131,-2.1382501655817,-1.87046800777316,2.88671575769637
5.34188937500585,-0.387357973717153,-2.53406631946564,-1.32527552068234,2.88580898830332
5.3518623750424,-0.25590098105371,-3.07632423520088,-1.00742730975151,3.24717814365361
5.36183437495492,-0.48439880322665,-3.72269474923611,-1.13788936212659,3.92274018984158
5.37180737499148,-0.707466681674123,-4.40805215835571,-1.48875563040376,4.70614770948834
5.38177937502042,-0.86312818698585,-4.86536172509193,-1.63135854899883,5.20365887607466
5.39175237494055,-0.869558954760432,-5.33911483168602,-1.98797379970551,5.7631866003149
5.4017253749771,-0.834329480454326,-5.77859331429005,-2.35847019419074,6.29687446522471
5.41169737500604,-1.04003993578255,-6.19378889501095,-2.16650800466538,6.64367826420445
5.4216703750426,-1.02581417173147,-6.74931706666946,-1.76244698435068,7.05065918577885
5.43164337496273,-0.471711112707853,-7.02516004979611,-1.57540025666356,7.21507249220678
5.44161537499167,0.227151866219938,-6.92019083440304,-0.986390928179026,6.99382629310143
5.45158837502822,0.394667943455279,-6.82760836064816,-0.306086098104715,6.84585183972285
5.46156037494075,0.104349775984883,-6.78736665308476,0.519237135350704,6.80799839614275
5.4715333749773,-0.489590728729963,-6.79777235805988,1.41863859772682,6.96146131100516
5.48150637501385,-0.82726297415793,-6.60808225035667,1.9286023414135,6.93329806421137
5.49147837504279,-0.834824958890677,-6.16982291221619,1.98137726336718,6.5337204822278
5.50145137496293,-0.627622074857354,-5.43185518026352,1.45754421651363,5.6589217445814
5.51142337499186,-0.391551158241928,-4.24194094777107,1.03639470845461,4.38423189459799
5.52139637502842,-0.187693831734359,-2.89489215016365,1.22632045894861,3.14952240880839
5.53136937494855,0.109731297455728,-1.19239637553692,1.95232186406851,2.29028616879089
5.54134137497749,0.752965913191438,0.78924079656601,2.69839968413115,2.91053595695216
5.55131437501404,1.32178721800447,2.67145600676537,3.31933013230562,4.46113787872498
5.56128737493418,1.02734226845205,3.96950572192669,4.03126255184412,5.75008570152287
5.57125937496312,-0.0620930448174477,4.69282033145428,4.7651904425025,6.68830757089135
5.58123237499967,-1.33777335941792,5.36178916454315,5.40358155369759,7.72897885969689
5.59120437502861,-2.28638674288988,6.49787743806839,5.30902622938156,8.69688076510666
5.60117737494875,-2.14146554946899,8.1441785466671,4.43233798384667,9.51625655930971
5.6111503749853,-1.34627608805895,10.2214030766487,3.57913303345442,10.9132824315954
5.62112237501424,-0.546514104008675,12.540170238018,3.64190640181303,13.0697371627711
5.63109537493438,-0.334986692368984,14.8167813134193,4.51805641114712,15.4939361786495
5.64106737496331,-0.613804154098034,16.5982396423817,5.71477972626686,17.5652219480788
5.65104037499987,-1.4298190587759,17.5040446829796,6.70756736218929,18.7996654949734
5.66101337503642,-1.36332671508193,17.8421634364128,8.23004724740982,19.6960689864328
5.67098537494894,-0.509857032001019,18.2679763913155,9.94283353686333,20.8047796039399
5.68095837498549,1.1784506200254,18.7709117817879,10.0369491505623,21.318447955573
5.69093137502205,4.60494515866041,19.6763461089134,8.75595517873764,22.0234163381635
5.70090337493457,7.94554687678814,20.1245819664001,5.44667436361313,22.3113597998158
5.71087637497112,8.86354102313519,19.2030888462067,2.53785999298096,21.3016833618398
5.72084837500006,6.36496905684471,17.3680314302444,1.74490387558937,18.5797211063998
5.73082137503661,1.81130251765251,16.7232893657684,2.92482346236706,17.0734828405833
5.74079437495675,-3.36293018817902,16.5047637140751,3.55924402177334,17.2158282610668
5.75076637498569,-5.62400228798389,16.4551383948326,3.62787220716476,17.7640771806436
5.76073937502224,-5.09100285351276,16.2060797524452,3.23481535434723,17.2921763053067
5.77071237494238,-3.50222109764814,16.1018051862717,2.51190303325653,16.6686334089493
5.78068437497132,-1.45099752768874,15.9853882920742,1.28883157968521,16.1027674489367
5.79065737500787,1.10603446215391,17.1318811011314,0.476296645402908,17.1741526949424
5.80062937503681,4.66587226867676,18.9795135390759,0.169659301042557,19.5453596151619
5.81060237495694,8.30420865297318,20.337233505249,-0.556232761144638,21.9743564839498
5.8205753749935,9.77611421585083,19.787333278656,-1.60737970232964,22.1290450980025
5.83054737502243,8.78955912709236,16.2031374335289,-0.642393968850374,18.444800957172
5.84052037494257,6.19647101283073,10.6080630755425,3.11415572047234,12.6738005775256
5.85049237497151,1.57139389067888,4.27925086140633,6.6562597990036,8.06765524835693
5.86046566662844,-3.04097781658173,-1.72482219815254,8.13292499542236,8.85251527405335
5.870438666665,-5.17745569109917,-7.7088469094038,5.07856524109841,10.5841481950137
5.88041066669393,-5.12068916738033,-12.5340107810497,-1.85312326580286,13.665904640625
5.89038366661407,-3.12312827289104,-15.1453129720688,-4.18228531479836,16.0195488602278
5.90035566664301,-0.0637387436628342,-16.718733215332,-1.80876950383186,16.8164131154917
5.91032866667956,2.23471402108669,-18.4734990048409,1.0978778886795,18.6405323984147
5.9203016665997,3.14394260644913,-19.4314670562744,1.09784865260124,19.7147548484819
5.93027366662864,2.90091887533665,-19.6855519652367,-0.722743628919125,19.9112692928015
5.94024666666519,0.628339455127716,-17.8773519802094,-2.58941167742014,18.0748326999263
5.95021966670174,-2.43722911924124,-15.6248910748959,-2.74358784377575,16.0500648328458
5.96019166661426,-3.47039733409882,-14.2521975588799,0.113032525777817,14.669068452555
5.97016466665082,-3.34904100447893,-12.792819070816,3.79840420514345,13.7586398286301
5.98013666667976,-2.61993180423975,-12.0995462858677,6.46829695880413,13.96788919379
5.99010966659989,-1.61979421824217,-11.5231546640396,5.82325960993767,13.012193481714
6.00008266663645,-0.499073012173176,-10.8164484858513,2.17381614714861,11.0440078033365
6.01005466666538,0.328513970822096,-10.0135789990425,-1.169674680233,10.087012672574
6.02002766670194,1.06843321099877,-9.19380755066872,-2.10663105458021,9.49239386062441
6.02999966661446,1.56842672109604,-8.20830437600613,-0.730781796276569,8.38869865607167
6.03997266665101,1.63262417882681,-7.13386622071266,1.50116049841046,7.47067545850461
6.04994566668756,0.881528132110834,-5.87983492970467,3.46389055252075,6.88099472519202
6.05991766660009,0.239900568779558,-4.94173805594444,3.98155624866486,6.35067850373112
6.06989066663664,-0.0532998740114272,-4.92268256485462,4.0371667778492,6.36666004299449
6.07986266666558,-0.647596894428134,-5.54459359109402,3.974043161273,6.85236593270781
6.08983566670213,-1.59496620967984,-6.74834467470646,4.32576955497265,8.17290372519998
6.09980866662227,-2.52307589292526,-7.86759939908981,5.2382047533989,9.78283298970957
6.1097806666512,-3.04153534859419,-8.76144162118435,5.92133378863335,11.0034535667026
6.11975366668776,-2.91810530394316,-9.52905532121658,5.66893229305744,11.4653838672317
6.12972566660028,-2.33671504363418,-10.0333496046066,4.46165884673595,11.226519547396
6.13969866663683,-1.60971201047301,-10.5699953627586,2.868003436625,11.0698427467554
6.14967166667339,-0.780821683108807,-11.1738864398003,1.62510392859578,11.3184090511477
6.15964366670232,-0.276423154827207,-11.5472872924805,1.45695043176413,11.6421200017962
6.16961666662246,-0.0248918893933296,-11.7538226437569,1.97720907568932,11.9189899771767
6.17958966665901,0.126676464462653,-11.7230148339272,2.56312405765057,12.000613678393
6.18956166668795,0.36939799502492,-11.615786254406,2.36414155483246,11.8596842486662
6.19953466660809,0.725176728442311,-11.456975877285,1.78970261067152,11.6185718991109
6.20950666663703,1.1427818736434,-10.9376986885071,1.41101002782583,11.0873870821724
6.21947966667358,1.49095754563808,-10.3246882939339,1.33826540261507,10.517276123485
6.22945266671013,1.74001852691174,-9.65028388917446,1.52114978983998,9.92318196440973
6.23942466662265,1.80206303983927,-8.92690262138844,1.80292828157544,9.28372619155752
6.24939766665921,1.68846786573529,-8.3703687286377,1.95893652677536,8.7607892739702
6.25936966668814,1.30084833875299,-8.08316285133362,2.04273078158498,8.4381560265055
6.26934266660828,0.648667446523905,-8.0764297825098,2.02221070915461,8.3509774062807
6.27931566664483,0.039140238314867,-8.30192706942558,2.12943110257387,8.57076436760022
6.28928766667377,-0.612761157006025,-8.63766717553139,2.17135271519423,8.92746005785347
6.29926066671033,-1.23114280387759,-9.08103931903839,1.85863660544157,9.35069611037318
6.30923266662285,-1.73789321020246,-9.59080133378506,1.37008492693305,9.84280832594083
6.3192056666594,-1.90584322392941,-10.1889311492443,1.06286008358002,10.4199917425834
6.32917866669595,-2.08353265240788,-10.3900508093834,0.960559683591127,10.6403448741551
6.33915066660848,-2.05204437285662,-10.0053659999371,1.30929127961397,10.297207318285
6.34912366664503,-1.50007657080889,-9.87540227651596,1.45266471505165,10.0937621636168
6.35909666668158,-0.691704561710358,-9.99367975473404,1.33879618361592,10.1066545138407
6.36906866671052,-0.281431934572756,-10.0886245036125,1.16156239941716,10.1591719897061
6.37904166663066,-0.179363376684487,-10.2648724472523,0.707990080565214,10.2908224906192
6.38901366665959,-0.194375554695725,-10.2896330666542,0.122483965158463,10.2921976673774
6.39898666669615,-0.271807929240167,-10.2210791409016,-0.0787188716232777,10.2249955997898
6.40895966661628,-0.584486836083233,-9.97202166795731,-0.0831121771037579,9.98948190056659
6.41893166664522,-1.37496033534408,-8.64012359082699,0.0394628584384918,8.74893187227622
6.42890466668177,-4.24097586482763,-4.6878718328476,-1.67510917067528,6.5397254790195
6.43887666671071,-9.3375309419632,2.68381877481937,-7.49161524653435,12.268523395678
6.44884966663085,-9.20365601599217,10.1564498662949,-11.5599897837639,17.930257157888
6.4588226666674,-4.3166613471508,17.8613259315491,-9.15038028001785,20.5277857668077
6.46879466669634,5.67330016314983,26.3242841506004,1.77125025987625,26.9868782608486
6.47876766661648,12.8873966145515,26.9800026082993,8.19549371123314,31.002768415344
6.48873966664542,13.9470208489895,22.8132720565796,4.80360928058624,27.1668812087475
6.49871266668197,10.0364661705494,18.1510835337639,-4.65767564177513,21.257620493043
6.50868566660211,5.25963830709457,13.996046243906,-9.08336534142494,17.4945886350269
6.51865766663104,1.37792048826814,11.7028173816204,-6.1693095266819,13.3009390486369
6.5286306666676,-0.909185608327389,12.6227060258389,-1.49154752969742,12.7429996436665
6.53860266669653,-0.893866780400276,15.8699361884594,0.565808161497116,15.9051567525282
6.54857566661667,1.61019031271338,19.7386517000198,-0.211881972178817,19.8053522500355
6.55854866665322,4.27627638280392,23.0355106902123,-1.3706107378006,23.4691258093603
6.56852066668216,6.50206755280495,24.4490820908546,-0.935942759513855,25.3162099532231
6.5784936666023,7.85158095180988,23.8020151734352,1.83479896903038,25.1306533344443
6.58846666663885,7.44420368313789,21.0407681536675,3.83244815647602,22.6454797221103
6.59843866666779,5.35367147505283,16.5231508684158,3.58677388250828,17.7353110986943
6.60841166670434,4.0916558110714,13.0302639734745,1.66045663297176,13.7581445960086
6.61838366661686,3.2400415956974,10.2694484782219,0.0264878869056702,10.768479149669
6.62835666665342,1.55370796367526,8.25169773280621,-0.164529538750649,8.39830898926138
6.63832966668997,-0.0703023163229227,6.85490959525108,0.2747752815485,6.8607746960599
6.64830166660249,-1.02624810822308,5.88382390022278,0.645190545916557,6.00739874729524
6.65827466663905,-1.38284632891417,5.13269116222859,1.13220455288887,5.43494891289634
6.66824666666798,-1.22221088960767,4.27258328139782,1.85230085492134,4.81453900309241
6.67821966670454,-1.03802732415497,3.41548320829868,2.12921504795551,4.15651091569634
6.68819266662467,-0.780451408177614,2.5131081444025,1.71348327755928,3.1401977467134
6.69816466665361,-0.44598409473896,1.51463876903057,0.971848171949387,1.85405536129101
6.70813766669016,-0.328544887974858,0.516857610940933,0.415958057641983,0.740340893858547
6.7181106666103,-0.307337694615126,-0.384049217104912,0.359074626155198,0.609003158315892
6.72808266663924,-0.0612603282183409,-1.29991848528385,0.450111059546471,1.37700430722715
6.73805566667579,0.123699820563197,-2.20289756655693,0.30410606643185,2.22722693814314
6.74802766670473,0.216640436276794,-3.22983118772507,0.230303113460541,3.24527072890712
6.75800066662487,0.183998939618468,-4.2497539973259,0.261120278835297,4.26174241919748
6.76797366666142,0.0560156681388617,-5.13294200778008,0.462417694330215,5.15403352087858
6.77794566669036,-0.041068065315485,-5.77801970243454,0.935521175265312,5.85340910385395
6.78791866661049,-0.0462312663719058,-6.15758118152619,1.41850878953934,6.31902765645761
6.79789066663943,0.11640198379755,-6.44403510689735,1.71324354171753,6.66890855492819
6.80786366667599,0.350913338363171,-6.8417135989666,1.70723143458366,7.06022834705481
6.81783666659612,0.200548167899251,-7.06883348822594,1.27794757246971,7.1862212914642
6.82780866662506,-0.130775737222284,-7.11704085767269,0.549143633432686,7.13939294291665
6.83778166666161,-0.0929253764078021,-7.10504821836948,-0.0376197795197368,7.10575545306388
6.84775366669055,0.260351570975035,-7.04993879556656,-0.475073371343315,7.07072235842302
6.857726624934,0.067272270899266,-6.71079210162163,-0.832825868949294,6.76260712429832
6.86769962497056,-0.657785740792751,-6.06623773276806,-0.721151139736176,6.14426409569055
6.87767162499949,-1.27159091815352,-5.4695246976614,-0.408065485954285,5.63020082432995
6.88764462503605,-1.56248214930296,-4.7155554753542,-0.192737091779709,4.97141443601125
6.89761662494857,-1.49692053616047,-3.78448169231415,0.0213305696099997,4.06983141717686
6.90758962498512,-1.45811578184366,-2.7621901756525,0.336519028320909,3.14150302501125
6.91756262502167,-1.07395919524133,-1.91599457502365,0.173875289708376,2.20332843238012
6.9275346249342,-0.244316769763827,-1.098209425807,-0.677440790757537,1.31327097428572
6.93750762497075,0.464308683872223,-0.103428474068642,-1.9546505177021,2.01170043732173
6.9474806250073,0.844104928672314,0.761623812317848,-2.71899153113365,2.94711705035192
6.95745262503624,1.4687837344408,1.27932926952839,-2.59059135317802,3.24116840006666
6.96742562495638,1.82528715714812,1.37237133443356,-1.70245308995247,2.84840706520566
6.97739762498532,1.74654168069363,1.07676242351532,-0.486862564086914,2.10875800304444
6.98737062502187,1.46972922921181,0.481287828683853,0.377076412439346,1.5918318384983
6.99734362494201,1.16737796701491,-0.187983890175819,0.617446092367172,1.33392238822841
7.00731562497094,1.01675318017602,-0.822016779184342,0.235870759114623,1.32858331679423
7.0172886250075,0.83674613468349,-1.4932976013422,-0.384821597747505,1.75447128280148
7.02726062503643,0.18809038259089,-2.0321039056778,-0.680563277006149,2.15127651628132
7.03723362495657,-0.56646999321878,-2.4202450042963,-0.863236141204834,2.63128310326364
7.04720662499312,-0.872225212007761,-2.73983510077,-0.980909017324448,3.03803484182485
7.05717862502206,-0.894578094184399,-3.02180011868477,-0.933698598146439,3.28684331784442
7.0671516249422,-0.919423498213291,-3.2943101888895,-0.912843918800354,3.53992983119422
7.07712362497114,-0.959945945218206,-3.44258856117725,-1.08637173771858,3.73538696413143
7.08709662500769,-0.961808502674103,-3.31122559905052,-1.49882497429848,3.75975622443856
7.09706962504424,-1.11082764409482,-3.16133924245834,-2.02415520071983,3.91474241009463
7.10704162495676,-1.5915547978878,-3.19195818722248,-2.58932835459709,4.40752368928141
7.11701462499332,-1.96889331176877,-3.32850529074669,-3.07256447553635,4.93924496254078
7.12698662502226,-2.07648602664471,-3.58506064832211,-3.43898433744907,5.38433536698992
7.13695962494239,-1.91057201340795,-3.80159766197205,-3.61868330776691,5.58545424149549
7.14693262497895,-1.5764596259594,-3.91686499357224,-3.43719275057316,5.44438704857988
7.15690462500788,-1.14131086036563,-4.10935182452202,-3.10722910881043,5.27676374611654
7.16687762504444,-0.680648792535067,-4.35494482219219,-2.7673386490345,5.20451634463358
7.17684962495696,-0.0959820266626775,-4.61685798346996,-2.43783401370049,5.22184113769537
7.18682262499351,0.41775366447866,-5.06279997825623,-2.14502825796604,5.51430938300431
7.19679562503006,0.832028089463711,-5.53054039299488,-1.71462816238403,5.84970918212564
7.20676762494259,1.26061394020915,-5.97187770545483,-1.03495760902762,6.1906064394082
7.21674062497914,1.57094643250108,-6.54647540152073,-0.500714764147997,6.75092054104769
7.22671362501569,1.75251256495714,-7.07403984904289,-0.314985560327768,7.29469368646789
7.23668562492821,1.54281050786376,-7.30461895108223,-0.48412387445569,7.48145027447904
7.24665862496477,1.02716729052365,-7.53940220117569,-0.972904471457005,7.67099741261823
7.2566306249937,0.332672656774521,-7.58809021174908,-1.41695167601109,7.72641807116067
7.26660362503026,-0.293707323297858,-7.38886504948139,-1.42930640414357,7.53156740049057
7.27657662495039,-0.867089675590396,-6.8379111546278,-1.02508707046509,6.96847737788776
7.28654862497933,-0.865891215652228,-5.87295626521111,-0.294593834280968,5.9437503663615
7.29652162501589,-0.604919456094504,-4.66077934384346,0.364182132482529,4.71396014683823
7.30649362492841,-0.441121988743544,-3.34394252479076,0.958164810240269,3.50636849484475
7.31646662496496,-0.262387443557382,-1.8321957886219,1.68854256391525,2.50538710951699
7.32643962500151,-0.273839507773519,-0.483733134269714,2.22269653111696,2.29114942564806
7.33641162503045,-0.897862329035997,0.799673983454704,2.47439372956753,2.75104699535274
7.34638462495059,-1.76241511702538,1.98200554668903,2.47851338535547,3.63008011388343
7.35635662497953,-2.42223451942205,2.71194037377834,2.36881728082895,4.33971611605675
7.36632962501608,-3.08267343431711,3.31416733324528,2.74347645431757,5.29275388345136
7.37630262493622,-3.20582953691483,4.0917248082161,3.95268211305141,6.53017999849646
7.38627462496515,-2.9722671854496,5.03475965559483,5.87498407959938,8.28846276138416
7.39624762500171,-2.43078563377261,6.40836182892323,8.16580915153027,10.6609689628556
7.40621962503064,-1.98023997992277,7.68343491017818,9.81529523849487,12.6212734308329
7.41619262495078,-1.70828963443637,8.80860526263714,10.4923431694508,13.8057613094534
7.42616562498733,-1.47369861155748,10.4378716778755,10.3580875897408,14.7787323975449
7.43613762501627,-1.91831825852394,12.509270042181,9.38285855770111,15.7543586554013
7.44611062493641,-3.07608362227678,14.9365556788445,8.31958332180977,17.3717717187107
7.45608262496535,-3.92568756490946,17.9405697369576,8.20808393597603,20.115857109354
7.4660556250019,-2.73776927947998,20.5809594869614,9.25623710274696,22.7321182324455
7.47602862503845,-0.34222196392715,22.1071295499802,11.1119527316093,24.7450557954861
7.48600062495098,3.23240220844746,23.3169184684753,13.1426065278053,26.9602525442069
7.49597362498753,7.29925296127796,23.9687169528008,12.060305621624,27.8070037552265
7.50594662502408,8.77696773290634,23.5161214113236,7.23067447721958,26.1213663925168
7.5159186249366,7.06426330447197,22.3881958508492,1.44761198982596,23.5208569138962
7.52589162497316,3.70082937866449,20.3128599715233,-1.43528196617961,20.6970638650785
7.53586362500209,2.1205453813076,17.4705787289143,0.346390955597162,17.6022106717167
7.54583662503865,-5.5787232041359,18.354847304821,2.11090741574764,19.2997021295542
7.55580962495878,-8.75844960093498,16.9374904167652,4.19390899479389,19.5237776489783
7.56578162498772,-9.84824195981026,14.8271706461906,5.70853548467159,18.6927856792395
7.57575462502427,-10.8340930438042,12.7041074538231,6.7732514744997,18.0180147024277
7.5857266249368,-6.27032251596451,13.4273343551159,8.33955916464329,17.0046611080278
7.59569962497335,0.459082734882832,17.6632269430161,6.38776735067368,18.7883984076421
7.6056726250099,5.40514509916306,17.5857957744598,-2.94054487109184,18.6312267632306
7.61564462503884,7.03690476715565,16.5060699820519,-10.6674637699127,20.8749409157682
7.62561762495898,9.55266170024872,16.1501803708077,-8.12050550937653,20.4456421101621
7.63558962498792,6.42784124314785,12.061802508831,2.58498153448105,13.9099371796843
7.64556262502447,1.68986096486449,4.5961863219738,9.45369289755821,10.6467303989635
7.65553562494461,-2.20718021348119,-1.12623980820179,12.9967489027977,13.2308557033449
7.66550762497354,-4.97878835320473,-5.87356846868992,11.1103494250774,13.5176552837285
7.6754806250101,-3.40126804232597,-10.8012433862686,5.01612633347511,12.3853545116215
7.68545262503903,0.21589078668505,-14.3126870048046,-1.28882909461856,14.372219681191
7.69542562495917,2.49741860300303,-16.8364131081104,-4.90853288769722,17.7142767601498
7.70539862499572,2.74659623622894,-19.8686095762253,-4.15131144404411,20.4826469012867
7.71537062502466,0.794978888556361,-22.4672338342667,-2.62678240209818,22.6342345438241
7.7253436249448,-1.30992657959461,-23.6382346630096,-4.07044094324112,24.0218761777646
7.73531562497374,-2.2169922798872,-23.1744381952286,-2.48285172700882,23.4122658692374
7.74528862501029,-1.00725298963487,-21.3925951194763,1.93973544001579,21.5039591263614
7.75526162493043,1.51962585926056,-19.1419667315483,4.96116718411446,19.8327338743949
7.76523362495936,3.14153940081596,-16.2466781401634,5.60169925332069,17.4700559507289
7.77520662499592,3.22344953656197,-12.993149356842,3.36743605256081,13.8040639918849
7.78517862502486,2.36720593437552,-10.5770798492432,-0.757106838226318,10.8651503826453
7.79515162494499,2.10726576983929,-9.45236499488354,-4.50187102586031,10.6796355628231
7.80512462498155,2.56279953718185,-9.31035834610462,-5.9505207502842,11.3428131960384
7.81509662501048,3.15061544895172,-9.29114322602749,-4.4051905310154,10.7544141527225
7.82506962493062,3.61594651848078,-9.051457670331,-0.911144717931747,9.78949129829135
7.83504162495956,3.9974314391613,-8.78204662442207,1.52486978843808,9.76877827038824
7.84501462499611,4.18427892297506,-8.25000905692578,2.00057937338948,9.46430966176837
7.85498762503266,3.75010737329721,-7.33613953649998,2.22697757005692,8.53473360496933
7.86495941667818,3.04231068938971,-6.48629878163338,2.64966343402863,7.63861522326016
7.87493241659831,1.6960287541151,-6.14833205580711,2.81232478737831,6.97048573005878
7.88490441662725,0.166473701409996,-6.38969049990177,3.04998954534531,7.08225207151735
7.8948774166638,-0.804490042626858,-6.98420439720154,3.67532703995705,7.93311692471594
7.90485041670036,-1.26561330959201,-7.49011952877045,4.19477730631828,8.67754713351001
7.91482241661288,-1.51926274716854,-7.85096465528011,4.29054651260376,9.07494323344273
7.92479541664943,-1.6304993006587,-8.19293496966362,4.31243614912033,9.40105403275746
7.93476841668598,-1.52119934499264,-8.54796387076378,4.28120032310486,9.68041373029284
7.94474041659851,-1.1949087048322,-8.97585901916027,3.73082881093025,9.79351497477753
7.95471341663506,-0.817414947375655,-9.44054134011269,2.85218087106943,9.89580333837855
7.964685416664,-0.560059105977416,-9.85318987369537,1.94558382511139,10.0590413713145
7.97465841670055,-0.214954903274775,-10.0721447110176,1.02986775398254,10.1269409142552
7.98463141662069,0.0777749848365784,-10.1798013067246,0.541304892674089,10.1944796129812
7.99460341664963,0.268226619288325,-10.3235843396187,0.299426704198122,10.3314082044851
8.00457641668618,0.274549652114511,-10.4979670214653,0.0321574933826923,10.5016057438675
8.0145484165987,0.361920210197568,-10.6550770282745,-0.0423480208218098,10.6613060209282
8.02452141663525,0.644193449467421,-10.5809015893936,0.0510545249283314,10.6006165013779
8.03449441667181,1.10787092640996,-10.2693175005913,0.197735584080219,10.3307966429868
8.04446641670074,1.74981246694922,-9.88414503335953,0.142951705008745,10.0388546109575
8.05443941662088,2.30608718186617,-9.51557924330235,0.0427583491802216,9.791124281836
8.06441141664982,2.59189177393913,-9.33096276462078,0.0322218127548695,9.68430727144539
8.07438441668637,2.64713626742363,-9.4813414567709,-0.0487479445338249,9.84406128588644
8.08435741660651,2.41905085667968,-9.70872564017773,0.0179661548137665,10.0055726166055
8.09432941663545,1.90340405791998,-9.93415042161942,0.538815075159073,10.1291960832184
8.104302416672,1.49708265021443,-10.277479044199,1.10552502349019,10.444616677652
8.11427441670094,1.47723676174879,-10.7902552986145,1.4682908141613,10.9894365540045
8.12424741662107,1.31930872946978,-11.3626965415478,1.58759053185582,11.548674898697
8.13422041665763,0.502134029567242,-11.3340580487251,1.18593702949584,11.4069915873314
8.14419241668657,-0.11186936840415,-11.3494923591614,0.510954262018204,11.3615388845052
8.1541654166067,-0.62050506323576,-11.630053460598,0.312723126411438,11.650792495949
8.16413741663564,-0.65400858566165,-11.5607335495949,0.403413514271379,11.5862431313323
8.17411041667219,-0.0704721048474312,-11.3684291517735,0.429440567493439,11.3767555523296
8.18408341670875,0.802630335688591,-10.8543875598907,0.305715823173523,10.8883151552762
8.19405541662127,1.73051840946078,-10.2481996965408,-0.292477653846145,10.3973955471388
8.20402841665782,2.03324893668294,-9.56253589332104,-0.926250487938523,9.82008828453094
8.21400041668676,0.713473160862923,-8.13331208109856,-0.342353307008743,8.1717204520612
8.2239734166069,-4.29548945635557,-4.02350709736347,-2.61035728096962,6.43846287296178
8.23394641664345,-8.94504770100117,1.46855861663818,-4.81103290557861,10.2623866815789
8.24391841667239,-10.3790346550941,5.94270126879215,-7.82681039214134,14.2933208057568
8.25389141670894,-8.68215220749378,13.3359669327736,-6.43302772343159,17.1642543291737
8.26386341662146,-4.18279226839542,22.1297302079201,2.64323091208935,22.676141203708
8.27383641665801,0.131407839506865,28.0397589898109,12.3746566128731,30.6492655460696
8.28380941669457,3.79796800285578,30.0831269717217,15.3097787761688,33.9677555267149
8.29378141660709,5.57761983454228,32.0541040849686,10.7390044534206,34.262248150979
8.30375441664364,4.49971720397472,32.864883685112,2.88404205679894,33.2966324594105
8.31372641667258,1.23909457862377,27.7358791923523,-1.26207779064775,27.7922145626645
8.32369941670913,-0.298772693127394,23.2497994494438,-0.331655825972557,23.2540842681112
8.33367241662927,-0.427814310640097,19.2824133431912,1.7895633007586,19.3700032583757
8.34364441665821,-0.516386032998562,16.1295782911778,3.30356983959675,16.472508129347
8.35361741669476,-0.968113482221961,14.4785842072964,3.39338950395584,14.9024070769721
8.3635904166149,-1.2570478695631,13.8169916367531,2.28002935767174,14.0601550883453
8.37356241664384,-1.42261265784502,13.8141241621971,1.44463999629021,13.9621215387111
8.38353541668039,-1.52636272877455,13.8717543196678,1.30814157083631,14.0166538608316
8.39350741670933,-1.28854418903589,13.762897875309,1.30238484084606,13.8843044596029
8.40348041662946,-0.681831099539995,13.3896139669418,0.897792527899146,13.4369895160775
8.41345341666602,-0.124814537409693,12.6061736083031,0.528665332049132,12.6178714030829
8.42342541669495,0.205105889774859,11.5799451613426,0.338186508044601,11.5866979109644
8.43339841661509,0.184834141284227,10.3715548968315,0.28415414236486,10.3770929558522
8.44337041664403,0.141055032704026,8.97773480594158,0.0164682443439961,8.97885794358825
8.45334341668058,0.180814162250608,7.74479793012142,-0.224320169314742,7.75015537121965
8.46331641660072,-0.0795554894115776,6.49132037043572,-0.246872880086303,6.49650024601333
8.47328841662966,-0.58516829252243,4.98100678682327,-0.20698083601892,5.01953101468974
8.48326141666621,-1.01168305948377,3.36751849830151,-0.168355371952057,3.52023109760061
8.49323341669515,-1.430877404809,1.65852646708488,0.0154302173852921,2.19051552864219
8.50320641661529,-1.8254254437983,0.0353803324699402,0.314241063594818,1.85261363075011
8.51317941665184,-1.96543482989073,-1.37249880373478,0.62321437060833,2.47691000816213
8.52315141668078,-1.61479601830244,-2.58144221484661,0.923432641625404,3.18184505168571
8.53312441660091,-0.835208974778652,-3.7769785451889,0.86692573428154,3.96417724012533
8.54309641662985,-0.341503998935223,-4.48697729051113,0.645805088281632,4.54605921638751
8.5530694166664,0.252409170046449,-4.75293497085571,0.24404063500464,4.76588470882796
8.56304241670296,1.21931856438518,-5.18345142602921,-0.231382509469986,5.32995725246903
8.57301441661548,2.17003767639399,-5.68228908777237,-0.537576561793685,6.10626410776477
8.58298741665203,2.74010231852531,-6.1570525932312,-0.74868041574955,6.78070643198257
8.59295941668097,2.91199993371964,-6.73778752684593,-0.979037323594093,7.40513595093933
8.60293241660111,2.82700597643852,-7.44364761292935,-1.01159111201763,8.02640449729522
8.61290541663766,2.14791283562779,-8.18862381756306,-0.614805489778519,8.48793705003032
8.6228774166666,1.36975470542908,-8.93650491893292,-0.206085700392723,9.04321952819148
8.63285041670315,0.483757546395063,-9.53329513728619,-0.035965638756752,9.54562889837384
8.64282241661567,-0.113576316833496,-9.89758193492889,0.108086329512298,9.89882368733799
8.65279541665223,-0.328106858432293,-10.0082860994339,0.27178499719128,10.0173505401064
8.66276841668878,-0.322082216329873,-9.8774172270298,0.170199035592377,9.88413252352565
8.6727404166013,-0.20926212720573,-9.45925126075745,-0.0772978154942393,9.46188141990293
8.68271341663785,-0.107065405659378,-8.5666088873148,-0.286081476006657,8.57205304697912
8.69268541666679,-0.257154697179794,-7.52853865921497,-0.487195855379105,7.5486676097888
8.70265841670334,-0.442446054182947,-6.65210184395313,-0.767066473737359,6.71078299666429
8.71263141662348,-0.696082737520337,-5.55391346812248,-0.993572916984558,5.68486351025522
8.72260341665242,-1.11205270886421,-4.33520637631416,-1.17855016887188,4.62813742806706
8.73257641668897,-1.37363550245762,-3.1380392575264,-1.10129558622837,3.59819633200231
8.74254841660149,-1.61785279646516,-1.83427739739418,-0.806834483742714,2.57546173059855
8.75252141663805,-1.78365015774965,-0.136186915040016,-0.662607062458992,1.90761706856723
8.7624944166746,-1.46182803288102,1.88841735184193,-0.911414274573326,2.55611761708074
8.77246641670354,-0.773268249928951,4.06887096583843,-1.85690904557705,4.53891682304678
8.78243941662367,0.392202172614634,6.04359731376171,-2.89376188337803,6.71213444984552
8.79241241666023,2.35730966806412,7.82260565936566,-3.25411701321602,8.79427914662652
8.80238441668917,4.07906412452459,8.86446371376515,-2.37705630004406,10.0433001408014
8.8123574166093,4.74730439454317,7.87486397981644,-0.612064899802208,9.21547639336291
8.82232941663824,4.39515963256359,5.5945586335659,1.27986472830176,7.22873213107764
8.83230241667479,3.47457224607468,3.0416479074955,2.16358381211758,5.09954597963597
8.84227541659493,2.50592513233423,0.17449202477932,1.27091512620449,2.81519688362844
8.85224741662387,1.72313293755054,-2.42022570848465,-0.512883404642344,3.01491774137191
8.86221974994987,0.940951922982931,-4.46390944004059,-2.04883439764381,5.00095994777175
8.87219174997881,0.261564045958221,-6.24032980799675,-3.04847628593445,6.95006039747969
8.88216475001536,-0.511415643878281,-7.57255357503891,-3.35738293468952,8.29922489017995
8.8921367500443,-1.25797860011458,-8.34768504023552,-2.80533151745796,8.89585524905622
8.90210974996444,-2.0543075376749,-8.84211682498455,-1.88444636151195,9.27115675066701
8.91208275000099,-2.63551521867514,-9.04778269529343,-1.0205274116993,9.47891282622375
8.92205475002993,-2.81709640771151,-8.91247344732285,-0.284795947372913,9.35143432053158
8.93202774995007,-2.59788721650839,-8.56278539299965,0.45395706564188,8.95970918577785
8.94200074998662,-2.21042527198792,-8.10339480221272,0.543951269388199,8.41705828582884
8.95197275001556,-1.69007628858089,-7.26263535797596,-0.17579712331295,7.45876228557467
8.96194574993569,-1.59242515593767,-6.26595055282116,-1.23246266663075,6.58155896671157
8.97191774996463,-1.5216340854764,-5.3278981178999,-2.15588200584054,5.94556102213339
8.98189075000119,-0.740255893617869,-4.34112785160542,-2.3611545047164,4.99684104281523
8.99186375003774,0.34757092371583,-3.61870552718639,-1.82232919692993,4.06653647979276
9.00183574995026,1.27011800453067,-3.55045390248299,-0.961710269451141,3.89150476055952
9.01180874998681,2.51472109884024,-3.66779524147511,-0.273322248458862,4.4554740701571
9.02178075001575,3.48750950306654,-3.6647213602066,0.283299352526665,5.06686922123277
9.03175374993589,3.52314272761345,-3.97127625882626,0.304675603508949,5.31755554991447
9.04172674997244,2.69876016497612,-4.49261868417263,-0.041935353577137,5.2410578744485
9.05169875000138,1.57959958076477,-4.54916125953198,-0.118799342215061,4.81706511109094
9.06167175003793,0.775012620538473,-4.04730292618275,0.00635563105344772,4.12084286673581
9.07164374995045,-0.169047243744135,-3.09366122961044,0.0224837136268616,3.09835799926199
9.08161674998701,-1.26382026091218,-1.97053097069263,-0.188601940870285,2.34857502551037
9.09158975002356,-2.34382189571857,-0.187810227870941,-0.365553304553032,2.37958042079111
9.10156174993608,-3.08692903786898,1.98765278756619,-0.0408270138502121,3.671724572162
9.11153474997263,-3.13709288567305,4.38672794759274,1.24322212815285,5.53446791656258
9.12150675000157,-2.90818813383579,6.79906166911125,3.33581372559071,8.11248735062191
9.13147975003813,-2.57296726047993,9.35048018574715,6.03138657331467,11.4205632183493
9.14145274995826,-2.17456342130899,12.5957316505909,7.65499463796616,14.8989974425893
9.1514247499872,-1.74483560934663,15.4454411959648,8.48311298668385,17.7078883830483
9.16139775002375,-1.71902351438999,17.8732168292999,9.4905093061924,20.309522115528
9.17136974993628,-2.59903531730175,19.7223496627808,10.0239648234844,22.275680272082
9.18134274997283,-4.52311249852181,20.8757831168175,9.76891512393951,23.48805164575
9.19131575000938,-6.00475426018238,21.5406138753891,9.21155034184456,24.1848667466687
9.20128775003832,-7.73222232341766,24.5296730947495,9.84967686653137,27.5410286403598
9.21126074995846,-7.20863105893135,29.2747353744507,11.1505887937546,32.1451415214696
9.22123274998739,-3.11324823260307,33.2564155840874,12.2671146225929,35.5831925664796
9.23120575002395,1.78202229291201,33.7390938806534,13.0403118288517,36.2153529864568
9.24117874994408,4.53340886056423,30.5429216051102,12.2139108073711,33.2054434285008
9.25115074997302,4.23097391009331,25.9696645545959,11.6501959490776,28.7758871793387
9.26112375000957,2.2120474357903,19.5166551411152,10.4984324598312,22.2712834356048
9.27109575003851,-2.45222167253494,12.6177113342285,8.44366416156292,15.379060274231
9.28106874995865,-7.08030806422234,4.28303868770599,5.37915890336037,9.86967746141075
9.2910417499952,-9.05929703235626,-3.23496153473854,1.47757502317429,9.73237210554577
9.30101375002414,-8.31963711619377,-4.17184043347836,-4.20975085616112,10.2148233767649
9.31098674994428,-4.93092830836773,-0.409147220849991,-9.55029357790947,10.7559082766101
9.32095974998083,-3.18894804060459,2.6213576477766,-12.4616210818291,13.1275628168491
9.33093175000977,1.21703274160624,9.09380145192146,-14.1340849721432,16.8508383038018
9.34090474992991,5.52320155262947,13.6356379044056,-9.78022246956825,17.6660444923384
9.35087674995884,5.70407522857189,13.9162937307358,0.632848827838898,15.053245598615
9.3608497499954,2.08200989127159,9.83321461558342,9.07731698155403,13.5434322993503
9.37082275003195,-0.371912882477045,4.8920297062397,12.0015586459637,12.9656347230434
9.38079474994447,-0.389323990345001,-0.0501574158668518,9.95770066738129,9.96543483832945
9.39076774998102,0.643051634430885,-6.20913959026337,4.4241436958313,7.65114222173944
9.40073975000996,2.46450141012669,-12.3891904520988,0.353760055303574,12.6368885978955
9.4107127499301,4.21226340472698,-18.0663059234619,-1.39807013958693,18.6034720637337
9.42068474995904,4.19271470099688,-21.6145016312599,-2.71289873242378,22.1838985947935
9.43065774999559,2.76605109214783,-23.2672592353821,-4.70580992102623,23.8989756680841
9.44063075003214,0.998008468598127,-22.8495739102364,-5.36907128691673,23.4931048451826
9.45060274994467,0.342379911839962,-20.5700883436203,-3.68753719568253,20.9008059423056
9.46057574998122,1.46741314709187,-17.4521108829975,-1.03723495334387,17.5443817777982
9.47054875001777,3.55170929968357,-14.2628769135475,0.554042394161224,14.708883702545
9.48052074993029,4.88100214987993,-11.4821539878845,1.81111803799868,12.6073070374362
9.49049374996685,4.03983486235142,-9.0265198802948,2.10857466906309,10.1115979943549
9.50046574999578,2.02408123344183,-6.95945254862309,0.978891727924347,7.31362520444591
9.51043875003234,0.69204253077507,-5.73289849340916,0.287142288833857,5.78165190012087
9.52041074994486,0.698263748958707,-5.48443451285362,0.415901047289372,5.54432753993
9.53038374998141,1.62835205689073,-6.45736383497715,0.650141237229109,6.69117043175533
9.54035675001796,2.6844140213728,-7.06670977950096,0.737982788532972,7.59533306327039
9.55032874993049,2.86394956201315,-8.2924931716919,0.642277024537325,8.7965999040857
9.56030174996704,2.18458627983928,-8.64643566012383,1.37764157608151,9.02392171679649
9.57027374999598,0.932431360334158,-8.78740910589695,2.05695354893804,9.07298434577202
9.58024675003253,-0.662693308889866,-9.81535137176514,2.69174029022455,10.1993014840663
9.59021974995267,-2.1672647805512,-10.5998793125153,3.89986129045486,11.5005824267163
9.60019174998161,-3.07959341347218,-10.8985433936119,5.21149116396904,12.4668273368516
9.61016475001816,-3.37255528986454,-11.4199162244797,5.95261288404465,13.3124834611962
9.62013674993068,-3.00735223352909,-10.8968991565704,6.03404588699341,12.8139099595447
9.63010974996723,-1.61568625688553,-9.64547747790814,5.13389627337456,11.0454773008363
9.64008275000379,0.0139768919348717,-8.64672100424767,3.00334747552872,9.15347341382334
9.65005475003272,1.65882350564003,-7.99149488210678,0.868194799348712,8.20788938054229
9.66002774995286,2.64247515946627,-7.83725118041039,-0.469955924749374,8.28408351022896
9.6699997499818,2.9251205009222,-7.78050687611103,-0.749904237985611,8.34595552110573
9.67997275001835,2.77848958164454,-8.00630295574665,-0.265994444712997,8.47889405636861
9.68994574993849,2.30671955823898,-8.59129290819168,0.350967717468739,8.90249668876165
9.69991774996743,1.77444240108132,-9.16306522965431,0.897756932973862,9.37637337931664
9.70989075000398,1.42222118675709,-9.54780558764935,1.20943706229329,9.72861977113185
9.71986275003292,1.19220860682428,-9.7292306560278,1.20334060907364,9.87559209069627
9.72983574995305,1.26427035033703,-9.77124582409859,0.92784553527832,9.89628828455605
9.73980874998961,1.65200199767947,-9.92126081943512,0.737131580114365,10.0848346448515
9.74978075001854,2.16402293801308,-10.0732486653328,0.863819547146559,10.339222318913
9.75975374993868,1.53461885109544,-10.2517045176029,1.14156945347786,10.4285992037038
9.76972574996762,0.756307816207409,-9.69199090898037,1.20456969380379,9.79579896893791
9.77969875000417,0.400976248607039,-9.82312115192413,1.16269675925374,9.89981590087944
9.78967175004073,0.463969837725163,-10.0020903897285,1.21599983096123,10.0864134241819
9.79964374995325,0.579203036203981,-10.1224190711975,1.04972255945206,10.1931722962929
9.8096167499898,0.742306585237384,-10.276520100832,0.777215412855148,10.3325673599193
9.81958875001874,0.580606952682138,-10.2870509362221,0.898652653321624,10.3425382759385
9.82956174993888,0.281964287012816,-10.4109873497486,0.924042579308152,10.4557169120128
9.83953474997543,0.33928147226572,-10.4311918187141,0.801363244056702,10.4674284198726
9.84950675000437,0.829021743535996,-10.2309761381149,0.970047302618623,10.3102444956097
9.85947975004092,1.04342408493161,-10.1945409679413,0.964465550556779,10.293084725497
9.86945200001355,0.881060939580202,-10.1364687609673,1.06102062262595,10.2298598271412
9.87942499993369,0.916659227013588,-10.0063588571548,1.33751564338803,10.136884620678
9.88939799997024,0.904063008874655,-9.92522873997688,1.64555617332459,10.1012549014687
9.89936999999918,1.04099865987897,-9.64691472351551,2.09895278334618,9.92734832064267
9.90934300003573,0.506316396743059,-8.76812849700451,2.45688541173935,9.1199078701493
9.91931499994826,-2.20779504820704,-5.97080766499043,2.30531154870987,6.77047741919365
9.92928799998481,-7.94286358952522,-0.18046904861927,-0.117097510099411,7.94577641934295
9.93926100002136,-11.6609653508663,5.46495743751526,-3.98596738815308,13.4807940688736
9.94923299993388,-10.8366693270206,12.4004264616966,-8.47930001735687,18.5230264082165
9.95920599997044,-6.42549475550652,22.0124163508415,-5.90549602031708,23.6792808104853
9.96917799999937,-0.647929381728172,25.98914747715,1.2673968565464,26.0280981607328
9.97915100003593,5.35464328229427,29.8591061067581,6.41638654768467,31.0065870179962
9.98912399995606,8.35409417331219,29.4812707257271,8.02753361105919,31.6761346905974
9.999095999985,4.40127669721842,25.2332241153717,5.43773981809616,26.1850310320871
10.0090690000216,0.552178009450436,19.9696213960648,1.4118686914444,20.0270829742668
10.0190409999341,-1.07420514374971,15.1890665173531,-0.994306157827377,15.2594332494666
10.0290139999706,-1.74493778944016,12.1652093482018,-1.12485577225685,12.3410869409048
10.0389870000072,-2.88585177004337,10.6488462352753,-0.547919189929962,11.0465506842585
10.0489590000361,-4.12527145385742,11.3971810805798,0.188880268335342,12.1222636874184
10.0589319999563,-3.12319785475731,14.4914796566963,0.8628244972229,14.8493034716586
10.0689039999852,-1.15960621342063,18.5223267638683,0.65456363260746,18.5701300174999
10.0788770000217,-0.100281210243702,21.757218132019,0.410450565218926,21.7613204294196
10.0888499999419,-0.999276729673147,21.9963271522522,1.06146201431751,22.0445835474207
10.0988219999708,-2.47005977332592,20.4170713877678,2.66432532727718,20.7378067496681
10.1087950000074,-3.25687572956085,17.7867715930939,3.97626978099346,18.5145133501784
10.1187670000363,-3.44230029344559,15.0407554006577,3.79086334347725,15.8884989606189
10.1287399999565,-2.7394699421525,12.5798213768005,2.22763304293156,13.0659462118182
10.138712999993,-1.59704679518938,10.2883303070068,0.432213317155838,10.420513774456
10.1486850000219,-0.659211949780583,8.20884875178337,-1.1364051926136,8.31331311729494
10.1586579999421,-0.0561979550868273,6.4241557431221,-1.72286221146584,6.65140507124183
10.168629999971,0.0414017951488495,4.73353507876396,-1.6205827152729,5.00343449917872
10.1786030000076,-0.152248193174601,3.1434584569931,-1.35826375722885,3.42773846980306
10.1885760000441,-0.309041865617037,1.85554898321629,-1.12990294262767,2.19436769106221
10.1985479999566,-0.128280017673969,0.919116227030754,-0.960230923891068,1.33539276204508
10.2085209999932,0.52985268227756,0.1218507117033,-0.628754534348846,0.831218217632145
10.2184930000221,1.28478282138705,-0.841164656281471,-0.171228693723679,1.54516799820043
10.2284659999423,2.13931786715984,-1.72618284523487,0.358146636486054,2.77212141962771
10.2384389999788,2.56997056245804,-2.5402871721983,0.506619282513857,3.64889993101359
10.2484110000078,2.67447229295969,-3.28343963027,0.388473878279328,4.25260976407924
10.2583840000443,3.01876921445131,-3.91291870772839,0.20128579415381,4.94615167118214
10.2683559999568,2.95865837574005,-4.6199429744482,-0.164144353419542,5.48857685017251
10.2783289999934,2.02704811066389,-5.57988036811352,-0.547554177492857,5.96186250618836
10.2883020000299,0.918457026556134,-6.65094467997551,-0.681239142045379,6.74853430119308
10.2982739999425,-0.00107471823692322,-7.66976938247681,-0.409858242273331,7.68071268269796
10.308246999979,-0.474423489868641,-8.512419231534,-0.0944570910930634,8.5261527644763
10.318219000008,-0.707552781924605,-9.08232219815254,-0.127765097245574,9.11073714747264
10.3281919999281,-0.82460782662034,-9.49926317274571,-0.27123011469841,9.53884399012405
10.338163999957,-0.521449063941836,-9.60279280364514,0.515086050778628,9.6307243962088
10.3481369999936,-0.0426319762319326,-9.33958272993565,1.38724957466126,9.44214405932823
10.3581100000301,-0.0322854743152857,-8.93475718617439,1.6829374229908,9.09193085639402
10.3680819999427,0.340000277794898,-8.45584800481796,1.84769558787346,8.66204044408311
10.3780549999792,0.569575266726315,-8.44121768653393,0.991166276112199,8.51827345198672
10.3880280000158,-0.203890911452472,-8.52580116927624,-0.794866914376617,8.56520113560537
10.3979999999283,-0.997176190540195,-8.08365869522095,-2.41469307303429,8.4953305346385
10.4079729999648,-0.884086727499962,-7.69003641664982,-3.97688549280167,8.70252191344546
10.4179449999938,-0.523872332833707,-7.29466874420643,-5.19731049656868,8.9721051435298
10.4279180000303,-0.33786717697978,-6.31029642105103,-5.67347031712532,8.49248259286481
10.4378899999429,0.237624594904482,-5.15678344488144,-5.14154326200485,7.28590063482713
10.4478629999794,0.958491084873676,-3.81763715922833,-4.09679083585739,5.68126339752597
10.457836000016,1.14039226278663,-2.30104191184044,-3.88102974772453,4.65378129006861
10.4678079999285,0.640150684565306,-0.89118466258049,-3.84112367033958,3.9947758451021
10.477780999965,0.320295855402946,0.591520122885704,-4.3498483890295,4.40155273719509
10.487752999994,-0.21882502913475,1.86102840900421,-5.65204261064529,5.95456940551092
10.4977260000305,-0.367683152854443,2.6882550573349,-5.91918844521046,6.51142826145636
10.5076989999507,0.396475463993847,3.80087377667427,-5.33946800351143,6.56610636681143
10.5176709999796,0.976152234300971,4.33916728019714,-4.81192957609892,6.55255004676804
10.5276440000162,0.999418670833111,3.96938176095486,-3.63625302135944,5.47514066295621
10.5376159999287,1.00659247353673,2.86208634674549,-1.52863407969475,3.39727667604685
10.5475889999652,2.1620894099772,1.05150011301041,2.23714704751968,3.28406912482403
10.5575620000018,3.52848065078259,-0.793503416776657,6.30691146790981,7.2702789244592
10.5675340000307,3.86508672952652,-2.32961140751839,8.89326417446137,9.97276954579618
10.5775069999509,3.57661960780621,-3.73479088425636,9.78135682940483,11.0641679394437
10.5874789999798,1.89307115077972,-3.41785308480263,9.70504130959511,10.4619914410287
10.5974520000163,0.71788064584136,-3.02513478577137,8.34915152192116,8.90927181254203
10.6074249999365,0.405777909010649,-3.03829394459724,6.45841516435146,7.14891685784233
10.6173969999654,-0.130527833551168,-2.97292967498302,4.7135785317421,5.57433143458713
10.627370000002,-0.879173750728369,-2.64499969482422,2.97661575973034,4.07789299156624
10.6373420000309,-1.30083094328642,-2.11205113112927,1.45722729742527,2.87687895467939
10.6473149999511,-1.40416498482227,-1.84158349335194,0.0177889841794968,2.3159070610768
10.6572879999876,-1.55030619978905,-1.59300081431866,-0.641714376211166,2.31363312739085
10.6672600000165,-1.53133739367127,-1.07838151752949,0.143855538368225,1.8784555694837
10.6772329999367,-2.04145331114531,-0.588267316818237,0.569240477085114,2.19946011065778
10.6872049999656,-2.61651001363993,-0.449390097856522,-0.274274175167084,2.66895156094918
10.6971780000022,-2.7088705855608,-0.202565676569939,-1.29035360991955,3.00732857221707
10.7071510000387,-2.33323463469744,0.146774468421936,-1.83179583907127,2.97001727287419
10.7171229999512,-1.84757162690163,0.462046396136284,-1.72374806463718,2.5687185869719
10.7270959999878,-1.11758724465966,0.750884231328964,-1.39084385812283,1.93578795738646
10.7370680000167,-0.522895153462887,1.19799800813198,-1.56561362564564,2.03955009593058
10.7470409999369,0.217583080530167,1.19023933768272,-2.12141895532608,2.44221834853422
10.7570139999734,0.641536620855332,0.751298798918724,-0.664607394933701,1.19068136399112
10.7669860000024,0.908364659249783,1.28157226145268,0.744446446895599,1.73831939752002
10.7769590000389,1.08921363070607,0.97492790043354,1.1519967931509,1.86117365009008
10.7869309999514,0.80363766476512,0.375098299384117,1.32271502494812,1.59251601802101
10.796903999988,0.490942751169205,0.319942683577538,1.63308406233788,1.73503650116139
10.8068770000245,0.274979641735554,0.307484605908394,1.50054873347282,1.5562156302282
10.8168489999371,0.242113465815783,0.167385318875313,1.00641047894955,1.04856989630819
10.8268219999736,0.00415035367012024,0.0996959039568901,0.845544220805168,0.851411491605785
10.8367940000026,-0.208420932143927,0.227376289665699,0.986134673953056,1.03324772307051
10.8467670000391,-0.316225316226482,0.401755170822144,1.04775087833405,1.16584200085373
10.8567399999592,-0.709651859253645,0.418602753281593,0.709361398816109,1.08721093653781
10.8667119999882,-1.26873396858573,0.311403409838677,0.21596749484539,1.32412232272258
10.8766850000247,-1.49460854709148,0.148720421791077,0.0608502191305161,1.50322161442179
10.8866569999373,-1.53834747433662,-0.107675891518593,0.0821451938152313,1.54429753683645
10.8966299999738,-1.51966649740934,-0.50466031908989,0.114152267575264,1.60533455740692
10.9066020000028,-1.28292662277818,-0.672161997556687,0.154733113646507,1.45658669733427
10.9165750000393,-0.906205136328936,-0.484583319425583,0.105900092124939,1.03307481437045
10.9265479999594,-0.736147493720055,-0.34130197763443,0.0583750927448273,0.813515718287273
10.9365199999884,-0.506423693150282,-0.182766419649124,-0.0653899973630905,0.542350783986228
10.9464930000249,-0.213784436881542,-0.0503509587049484,-0.167104067802429,0.275976038763122
10.9564649999375,-0.259822781682015,0.0260622096061707,-0.018825695514679,0.261804361044936
10.966437999974,-0.369144956767559,0.0488289284706116,0.120532164573669,0.391382506072161
10.9764110000106,-0.406360291689634,0.0656654012203217,0.205632541179657,0.46013625544127
10.9863830000395,-0.62925936833024,-0.0848004144430161,0.400067079663277,0.750474603934992
10.9963559999596,-0.889017099738121,-0.304763896465302,0.594812690019608,1.11222055925246
11.0063279999886,-0.71746154665947,-0.30077726483345,0.513489614725113,0.932142488252861
11.0163010000251,-0.144975280165672,-0.0548129689693451,0.355973811149597,0.388252041399293
11.0262739999453,0.200207202136517,0.210904975533485,0.0720996773242951,0.299603397781767
11.0362459999742,0.10419285133481,0.279443113803864,-0.107502229213715,0.317019452727423
11.0462190000108,-0.10160501986742,0.253038257360458,-0.00569051027297974,0.272734892629167
11.0561910000397,-0.128611408621073,0.243642951250076,0.312280492186546,0.416439536933773
11.0661639999598,0.0357735577225685,0.30329039812088,0.641378746032715,0.710374203421654
11.0761369999964,0.141304398179054,0.342928673028946,0.712485566139221,0.803245099385527
11.0861090000253,0.217225523293018,0.393696538209915,0.577916575670242,0.732237298013981
11.0960819999455,0.231362628936768,0.477585956454277,0.439605951905251,0.68910841296664
11.1060539999744,0.20763111948967,0.460557695031166,0.316046099066734,0.595910403473756
11.1160270000109,0.205961739420891,0.399377692937851,0.20132314324379,0.492395966400212
11.1259999999311,0.319002889841795,0.425968490839005,0.0647444647550583,0.536100591896236
11.13597199996,0.579174896478653,0.407453867197037,-0.113357630968094,0.717155608709559
11.1459449999966,0.787878687679768,0.396740598678589,-0.264967746734619,0.921066683769128
11.1559170000255,0.672933245301247,0.367183508276939,-0.446240787506104,0.887013935525421
11.1658899999456,0.252247567623854,0.169652284383774,-0.572403236031532,0.648117425771097
11.1758629999822,-0.18083011418581,-0.141738261580467,-0.444704723954201,0.500551252620037
11.1858350000111,-0.382869248986244,-0.363601503968239,-0.225111955404282,0.573995041767083
11.1958079999313,-0.502694046646357,-0.544906119704247,-0.231652066111565,0.776715304058434
11.2057799999602,-0.455391680002213,-0.615059258937836,-0.311432061195374,0.82623810306763
11.2157529999968,-0.218879992961884,-0.468457868099213,-0.291903530359268,0.593775122869978
11.2257260000333,0.0344555953145027,-0.399964168667793,-0.177708578109741,0.439020344631524
11.2356979999458,0.0189126728475094,-0.42634914457798,-0.0377081090211868,0.428431072358864
11.2456709999824,-0.120735940039158,-0.397801283597946,-0.114125955104828,0.431100640312563
11.2556430000113,-0.35714880913496,-0.461500266194344,-0.332827023267746,0.671797287119589
11.2656159999315,-0.467797425091267,-0.510809835791588,-0.333056234121323,0.768562017244234
11.275588999968,-0.341433101445437,-0.442520788908005,-0.136431328654289,0.575338786122392
11.285560999997,-0.12382882475853,-0.303323142528534,0.0322930026054382,0.329213220651508
11.2955340000335,-0.00535151794552803,-0.177377040982246,0.0501755422353745,0.184414854202563
11.305505999946,0.0620057751238346,-0.0989062374830246,-0.0773101311922073,0.140014343360644
11.3154789999826,0.17450985878706,0.0138526386022568,-0.141678619980812,0.225207499364012
11.3254520000191,0.347473275214434,0.194000090360642,-0.131716718673706,0.41919328003482
11.3354239999317,0.452757216989994,0.266229575872421,-0.150619597434998,0.546400537826616
11.3453969999682,0.492057230472565,0.344596298933029,-0.216040585041046,0.638388957989994
11.3553689999972,0.395243711471558,0.390647215247154,-0.255237979888916,0.611530264677018
11.3653420000337,0.19842774823308,0.368103860020638,-0.196836574673653,0.462188987493428
11.3753139999462,0.115801767110825,0.285442357063293,0.00264644980430603,0.30804933398468
11.3852869999828,0.0420759791135788,0.227175437808037,0.180455015301704,0.293160502300665
11.3952600000193,-0.0785968109965324,0.143064410090447,0.177817336320877,0.241379140005105
11.4052319999319,-0.0758090047538281,0.116196454167366,0.302744852900505,0.333021121132854
11.4152049999684,0.0660238355398178,0.153268386125565,0.484057654738426,0.51201773226695
11.4251769999973,0.234386955052614,0.215664024353027,0.586466959118843,0.66737673786032
11.4351500000339,0.23951861768961,0.246981711387634,0.553619055747986,0.651815305793902
11.445122999954,0.160656050741673,0.235203664898872,0.408892282247543,0.498321210770098
11.455094999983,0.0871106493473053,0.181442025303841,0.174467466473579,0.266361353491415
11.4650680000195,-0.0701800364255905,0.178259385824204,-0.105403078794479,0.218658306877362
11.4750399999321,-0.149500732719898,0.171289504766464,-0.156349868774414,0.27592724583249
11.4850129999686,-0.0639473430812359,0.049316001534462,-0.0179807728528976,0.0827323327779644
11.4949860000052,-0.0309686082601547,0.0060214626789093,0.0259347403049469,0.0408402187194126
11.5049580000341,-0.01547567948699,-0.00419362306594849,0.094010363817215,0.0953678752780433
11.5149309999542,0.223223450928926,-0.0194226962327957,0.10095744073391,0.245760767847741
11.5249029999832,0.504700226336718,0.136785085201263,-0.0667939138412476,0.527156433067152
11.5348760000197,0.60078547462821,0.27297200024128,-0.273978890776634,0.7145077550532
11.5448489999399,0.459363985955715,0.252754082679749,-0.422722701430321,0.673494157516568
11.5548209999688,0.252210291624069,0.1792352861166,-0.460703875422478,0.554962503075377
11.5647940000054,0.129276967942715,0.0866200679540634,-0.315263156890869,0.351577059413189
11.5747660000343,0.0776861071586609,0.0221808278560638,-0.105017162561417,0.132498018107058
11.5847389999544,0.0598335345089436,-0.0368696182966232,-0.142466239929199,0.158858585303835
11.594711999991,0.0462004588544369,-0.0847167992591858,-0.331504967808723,0.345263612558498
11.6046840000199,0.0547341777384281,-0.0395944207906723,-0.344386968612671,0.350950042770585
11.6146569999401,0.114683048576117,-0.0390728491544724,-0.331928306221962,0.353348679979338
11.624628999969,0.229935615956783,-0.0607437998056412,-0.362361894249916,0.433435507434082
11.6346020000055,0.209774124026299,-0.0689240545034409,-0.215423119068146,0.308484729977422
11.6445750000421,0.0271765427291393,-0.136972780823708,0.0052355968952179,0.13974089822288
11.6545469999546,-0.176008500158787,-0.195062529444695,0.0320135056972504,0.264675739478585
11.6645199999912,-0.360465349853039,-0.206319004297256,-0.0933642464876175,0.425699051562352
11.6744920000201,-0.40162989422679,-0.286181445121765,-0.166234586834908,0.520423221358133
11.6844649999402,-0.120088507086039,-0.251283507943153,-0.114242899417877,0.301025067005679
11.6944369999692,0.181757628768682,-0.0508894872665405,-0.0649415159225464,0.19960705403413
11.7044100000057,0.284166786968708,0.102997534275055,-0.171846744418144,0.347693195863789
11.7143830000423,0.108043535202742,0.0959206491708756,-0.71116584956646,0.725693490411794
11.7243549999548,-0.202103746533394,0.145781611204147,-0.359072250723839,0.437071028287159
11.7343279999914,-0.0113947615027428,0.0575213992595673,0.354458212852478,0.359275905984601
11.7443000000203,-0.00515578240156174,-0.00836210310459137,0.421354452967644,0.421468957215317
11.7542729999404,-0.148391954451799,0.0736632227897644,0.314914078116417,0.355833274348693
11.764245999977,-0.0141982090473175,0.0337214773893356,0.273193609714508,0.27563286372694
11.7742180000059,0.184672173410654,0.12655713558197,0.452997829914093,0.505299469726424
11.7841910000425,0.239192635416985,0.159503856897354,0.287668392062187,0.406703455842827
11.794162999955,0.133519853800535,0.217023501992226,0.0225240594148636,0.255800869874225
11.8041359999916,0.121518882215023,0.301208789348602,-0.0185362583398819,0.32532624608058
11.8141090000281,0.113156779110432,0.289483367800713,-0.255009353756905,0.402038365576476
11.8240809999406,-0.131087558269501,0.322745254039764,-0.676214118003845,0.760666799805256
11.8340539999772,-0.10199839130044,0.3606393045187,-0.589195269942284,0.698294669830702
