Time (s),Linear Acceleration x (m/s^2),Linear Acceleration y (m/s^2),Linear Acceleration z (m/s^2),Absolute acceleration (m/s^2)
0.00205579167231917,-1.05562678545713,-0.720163252651692,-0.638169794082642,1.42837099757868
0.0120287915924564,-1.81348908394575,-0.235627003312111,-1.35214172244072,2.27432407098135
0.0220007916213945,-2.02024809122086,-0.0239104342460632,-0.601624111533165,2.10806205566283
0.031973791657947,-2.58260113298893,-0.29410822302103,-0.88616950571537,2.74620185926383
0.0419457916868851,-2.54764501601458,-0.225414841175079,-1.98862050175667,3.23974049551084
0.0519187916070223,-2.60791606843472,-0.498899934589863,-2.33576033949852,3.53636872063816
0.0618917916435748,-2.67277572333813,-0.577882661819458,-2.74532739043236,3.87485495454415
0.0718637916725129,-3.01436246037483,-1.53484616160393,-2.72475688576698,4.34355083645189
0.0818367915926501,-2.5747831133008,-2.00980671823025,-2.5802242398262,4.16249783819393
0.0918097916292027,-1.29846603691578,-2.07744701653719,-3.5672634780407,4.32748990493404
0.101781791658141,-0.327355491220951,-2.81549280881882,-4.55322098135948,5.36339283282841
0.111754791694693,0.531963600218296,-3.34074994504452,-4.46116826534271,5.59871572407218
0.121726791607216,0.436856006383896,-3.49421538233757,-4.09593714237213,5.40158174822355
0.131699791643769,-0.573763590753079,-3.09513180434704,-2.54393349587917,4.04730072712795
0.141672791680321,-2.0697091037035,-3.29027385592461,-2.89209074914455,4.84497540986759
0.151644791592844,-2.84359628140926,-3.61776090949774,-2.78411957323551,5.37824837730721
0.161617791629396,-1.27076309859753,-2.67099056839943,-2.79757284700871,4.07129504010165
0.171590791665949,0.896657948791981,-1.40976734831929,-2.72131989240646,3.1932775341843
0.181562791694887,0.334590835869312,-2.30015956699848,-0.0300880175828934,2.32456239965815
0.191535791615024,-1.93398411870003,-4.31299485057592,0.713139284849167,4.78024965792306
0.201508791651577,-1.79265136152506,-2.41234921664,-1.56125628054142,3.38681986833243
0.211480791680515,-1.84470035165548,-2.06076476410031,1.03106409430504,2.95173914276319
0.221453791600652,-1.91897080779076,-2.02583452105522,1.09673651218414,2.99821370902909
0.23142579162959,-1.99994889736176,-1.86113570541143,1.66038237333298,3.19695031736351
0.241398791666143,-0.941925045847893,-1.91907927364111,1.03930749893189,2.37702505831354
0.25137179158628,-0.0102910995483398,-1.00132661730051,0.828659800887108,1.2997838154288
0.261343791615218,0.458223778903484,-1.13727584302425,0.943524259328842,1.54712746812315
0.271316791651771,1.31050954699516,-1.33216968029737,1.24332328498364,2.24454095994071
0.281288791680709,2.08703264951706,-1.69987476021051,1.44402662336826,3.05458546607347
0.291261791600846,2.58948359817266,-1.86843098402023,1.44158014833927,3.50351437435869
0.301234791637398,2.94383802294731,-1.5027699445188,1.84720968425274,3.78638131057828
0.311206791666336,2.80334287941456,-0.741509682834148,2.58505228579044,3.8847217699047
0.321179791586474,2.47086844325066,-0.52707035779953,3.04106669425964,3.95361615041953
0.331152791623026,2.81124071359634,-0.379335484206677,3.05231673717499,4.1669661893755
0.341124791651964,3.72051344543696,-0.429407823085785,2.43048289418221,4.46473498374951
0.351097791688517,4.49155390620232,-0.696735506057739,1.26433759331703,4.71784340643027
0.361070791608654,4.58317802131176,-0.635625670552254,0.326847660541534,4.63857415175199
0.371042791637592,4.9255751824379,-0.576440446078777,0.177665893435478,4.9623723797609
0.381015791674145,5.43193938016892,-0.753802284300327,0.213588262796402,5.48815116953338
0.390987791586667,5.06300638496876,-0.352421627640724,0.497893921136856,5.09962086968908
0.40096079162322,4.14034908413887,0.640099667608738,1.13569709479809,4.34074026107705
0.410933791659772,3.09552122890949,1.89205782830715,2.70551954627037,4.52570110806478
0.42090579168871,2.06587216079235,3.12665297448635,4.31253613650799,5.71329629340965
0.430878791608848,1.73772817254066,4.07779089331627,5.11106172680855,6.76542901422384
0.4408517916454,1.67553894102573,4.51356311827898,5.05598387897015,6.98159406940764
0.450823791674338,1.76586029648781,4.44251038491726,4.47538460075855,6.54852872266103
0.460796791594476,1.4536061167717,4.31774308204651,3.77837486028671,5.91878303793299
0.470768791623414,1.07182444989681,4.58443546503782,3.64198972463608,5.95230588418034
0.480741791659966,0.697027282118797,4.70990531086922,4.22449168682098,6.3651696820581
0.490714791696519,0.192033087015152,4.71298679351807,4.55748184740543,6.55894519048714
0.500686791609041,-0.364639384746552,4.85235517859459,4.85710545659065,6.87530261709147
0.510659791645594,-1.18553291380405,5.00006754040718,5.1262048459053,7.25838410533152
0.520632791682147,-1.95996797561646,5.06225501775742,5.12739592373371,7.46713394074147
0.530604791594669,-2.74162317931652,4.93622179269791,4.77882936537266,7.39729635389981
0.540577791631222,-2.66200924515724,4.22755942851305,3.69427669644356,6.21339136485045
0.55054979166016,-2.06574936926365,3.0888062864542,3.28303734183312,4.95846537950229
0.560522791696712,-1.32705132007599,2.37227093875408,3.1573491024971,4.16624386804371
0.57049579161685,-1.54483671426773,1.30608846724033,1.89430023550987,2.77141857904224
0.580467791645788,-1.86190256774426,0.458835982382298,0.483621452450752,1.97765045945232
0.59044079168234,-2.12087867259979,0.0589811566472054,0.0622804480791092,2.12261253528312
0.600413791602477,-1.93865838289261,-0.312964908778667,-0.0486581897735596,1.96436019587006
0.610385791631416,-1.47839831113815,-0.636248106658459,-0.042636142373085,1.61005933438463
0.620358791667968,-1.43982598364353,-1.13314566224813,-0.0667868971824646,1.83346078351354
0.630330791696906,-1.22615878343582,-0.541468249261379,0.203934509754181,1.35581802297494
0.640303791617043,-1.4873129761219,-0.700484156012535,0.410007930994034,1.69436845026198
0.650276791653596,-1.29595582723618,-1.14397148966789,0.087840381860733,1.73086342846737
0.660248791682534,-1.04689426124096,-0.844800601154566,0.165246992111206,1.35535317107098
0.670221791602671,-0.948444106578827,-1.43140043824911,-0.240373772978783,1.73384918278953
0.680194791639224,1.05375889241695,-4.16032375752926,-1.64386983633041,4.59575995996388
0.690166791668162,-0.0127223718166351,-3.84317048817873,-1.83014224648476,4.25670552215218
0.700139791588299,-0.335620822906494,-1.68459043085575,-2.2951268684864,2.86672175122515
0.710111791617237,-2.24391344547272,-1.39358547136188,-1.40649802386761,2.99256824615707
0.72008479165379,-2.21646310687065,-0.648338686823845,-0.982773109674454,2.50975989729105
0.730057791690342,-1.51426864027977,-0.751434892863035,-0.808245416879654,1.873746131965
0.740029791602865,-2.12901039540768,0.613378038257361,1.0711163520813,2.46093643178087
0.750002791639417,-2.28846572041512,1.5751371319592,1.6666880106926,3.23975018527327
0.75997579167597,-1.81946640014648,1.0387571297586,1.05778119206429,2.34699284322966
0.769947791588493,-1.38588951230049,0.102534580975771,0.659704504609108,1.53831502430481
0.779920791625045,-2.12626629710198,1.57308709815145,1.13770678281784,2.87923394468598
0.789893791661598,-2.9482631957531,3.85215093433857,1.09029580414295,4.97192795934228
0.799865791690536,-3.04835174024105,3.07300243198872,-0.0620027053356171,4.32893019286615
0.809838791610673,-2.06881155610085,1.2689093850553,-0.927223976254463,2.59804861083833
0.819810791639611,-0.649771839380264,0.837236935347319,-0.899922741651535,1.39033451733854
0.829783791676164,-0.159108000397682,1.0191022990644,-0.745791306495667,1.27282737423164
0.839756791596301,-0.284053058624268,1.32909550666809,-0.936826858520508,1.6507045673907
0.849728791625239,-0.408216344118118,1.48238041117787,-1.68620192348957,2.28196608077968
0.859701791661792,-0.828741661906242,0.698517298847437,-1.85747914910316,2.1505738648838
0.869674791698344,0.483882822990418,-0.801557371616364,-1.70030891597271,1.94105312037409
0.879646791610867,1.42814850926399,-0.992102342247963,-0.967012524604797,1.98972069516035
0.889619791647419,0.904486493468285,-1.0234817174077,-0.377925428152084,1.41719380184162
0.899591791676357,0.248628872036934,-0.809454474896193,-0.576605045199394,1.02445411858669
0.909564791596495,0.489621865153313,-1.45696709632874,-0.0205447769165039,1.53717428370349
0.919537791633047,0.242219738960266,-1.62312464609742,0.119707707166672,1.64545858467054
0.929509791661985,1.17140194773674,-1.50775074899197,-0.395871702432633,1.94992544704514
0.939482791698538,2.0255287116766,-2.59186955451965,0.0530482792854309,3.28988882325943
0.949455791618675,1.61406599342823,-2.30669046834111,0.99540192604065,2.98611033658213
0.959427791647613,0.945738015174866,-1.85198276638985,1.40443161785603,2.50932037205009
0.969400791684166,-0.0852360320091248,-2.04008228525519,1.38234317600727,2.46578051902812
0.979372791596688,-0.517787902951241,-2.02639190688729,1.60436136960983,2.63597114495537
0.989345791633241,-0.999031292796135,-2.30401741370559,1.80236855685711,3.09113121387489
0.999318791669793,-1.53855271160603,-2.24445416674018,2.15970769286156,3.47405473065595
1.00929079169873,-1.88079082846642,-2.26813334360719,2.02148594677448,3.57326299589505
1.01926391664892,-3.40708777606487,-2.33054959326983,-0.0147355681657791,4.12794448333187
1.02923691668548,-2.52316477060318,-1.1482314786315,-1.41444088160992,3.11214379418797
1.039208916598,1.35568338096142,-1.22161929756403,2.16882993400097,2.83444075969396
1.04918191663455,0.69804060459137,-0.96952039539814,3.24296052575111,3.45601265251318
1.0591549166711,-0.227861900925636,-0.955658108890057,2.36142669260502,2.55764334721013
1.06912691670004,-1.37180181562901,0.564533176124096,-0.319881872534752,1.51751848116724
1.07909991662018,-0.943090395927429,2.40568514496088,-2.88524541378021,3.87316170709612
1.08907191664912,1.06688530683517,2.09335378199816,-3.80242211937904,4.46976378441745
1.09904491668567,-0.15484713435173,0.749078611135483,-3.94435041546822,4.01783481500695
1.10901791660581,-0.895093526244164,0.711871900856495,-3.85595220923424,4.02197979406307
1.11898991663475,-1.96715069532394,0.428371988832951,-2.85226127028465,3.4912145125867
1.1289629166713,-2.63917323678732,-0.334890798032284,-1.37275374233723,2.99363325367053
1.13893591659144,-2.1959981444478,-0.73185622215271,-0.197673895955086,2.32316515759511
1.14890791662037,-1.41444409757853,-0.240492471456528,0.0319714057445526,1.43509961493524
1.15888091665693,-0.780078209638596,0.740477356910706,-0.263077926635742,1.10726632963049
1.16885291668586,-0.256875492632389,1.4468239313364,0.0841385096311569,1.47185726067639
1.178825916606,-0.607339472472668,1.246194267869,1.35577752113342,1.93907041514835
1.18879891664255,-1.25914321929216,1.8487615352869,2.12081259906292,3.0824027870137
1.19877091667149,-0.272617074251175,3.07692415952683,2.71161000609398,4.11030548473007
1.20874391659163,0.522703657150269,3.28666729331017,1.85274875164032,3.8089472228974
1.21871691662818,0.596139715611935,3.18184484302998,0.850040144920349,3.34695195866665
1.22868891665712,0.597582223713398,2.77495289325714,0.409282876253128,2.86792268840854
1.23866191669367,0.398204449117184,2.09727346301079,0.233890964984894,2.1475166461398
1.24863491661381,0.290177139937878,1.08152615010738,-0.233719056844711,1.14390829328273
1.25860691664275,-0.0669050109386444,-0.317299742102623,-0.602754085958004,0.684447145487627
1.2685799166793,-1.74369554847479,-0.524128038883209,-1.58118271440268,2.41149811180523
1.27855191659182,-3.26633038491011,-0.369678515195847,-2.30525073766708,4.01494176190627
1.28852491662838,-2.36937890589237,-1.59041400611401,-1.31730430394411,3.14303416139898
1.29849791666493,-1.28605999946594,-2.43577871739864,-0.2932355260849,2.77000999206082
1.30846991669387,-0.92312566280365,-1.73196574151516,-0.296606153547764,1.98490340556694
1.318442916614,-0.429936996102333,-0.134798786044121,-1.26908816367388,1.34670015241464
1.32841591665056,-0.606427453011274,1.30446294128895,-2.37993751555681,2.78091359069581
1.33838791667949,-0.957321934103966,2.92864929556847,-3.45145937204361,4.62666443334914
1.34836091659963,-0.433694563060999,4.48484188735485,-3.04964455962181,5.44079311025812
1.35833291662857,-0.0653350335359573,4.83427441835404,-1.68971376121044,5.12148517652676
1.36830591666512,-0.096960284113884,5.20470430076122,-1.12075716644526,5.32488918017983
1.37827891658526,-0.486860079020262,5.36540098965168,-1.06336996078491,5.49138563477366
1.3882509166142,-0.614026933014393,4.96946321368218,-0.641893593370915,5.04822950070795
1.39822391665075,-0.785215280950069,3.61591348171234,0.864835062325001,3.79991223973571
1.4081969166873,-1.61609000712633,0.276061084270477,2.88341114223003,3.3169287674773
1.41816891659983,-1.89978141546249,-5.47882469415665,5.68998519301415,8.1241997115136
1.42814191663638,-1.89924771085382,-10.5559690618515,8.35673360645771,13.5967136202558
1.43811391666532,-1.26061832562089,-14.5765449500084,8.9290181440115,17.1403671564699
1.44808691658545,2.27706218808889,-19.4075706553459,6.67064161062241,20.6479120118242
1.45805991662201,5.32172404289246,-19.5573260343075,3.0425311294198,20.4955298559073
1.46803191665094,5.26227832496166,-11.8931898593903,0.122731302380562,13.005944839705
1.4780049166875,3.99938323974609,-4.00855576694012,-1.30304396823049,5.81046549066189
1.48797791660763,2.87800012886524,1.10480391561985,-1.44647850707173,3.40525718634258
1.49794991663657,1.65562654048204,3.04716943323612,-1.50577848315239,3.78070226766428
1.50792291667312,0.805789805576205,3.95882753670216,-1.69267800718546,4.38027071219704
1.51789491658565,0.360084696114063,4.36051955759525,-2.08805006504059,4.84806609635866
1.5278679166222,0.371744921207428,4.50285774350166,-2.46247944295406,5.14565128546696
1.53784091665875,0.784824686944485,3.74312784433365,-2.27909029483795,4.45210157344685
1.54781291668769,1.22978084117174,2.11137694716454,-1.50329634010792,2.86882788199515
1.55778591660783,1.33756914541125,0.572811371684075,-0.870667221397162,1.69566078468019
1.56775891664438,1.19881099037826,-0.403182476162911,-0.657423651963472,1.42545072096427
1.57773091667332,1.17676837608218,-0.772552843093872,-0.900236006230116,1.67094182221664
1.58770391659345,1.08579198628664,-0.676749722957611,-1.37499907314777,1.87817913846489
1.59767691663001,0.842049266919494,-0.265793958306313,-1.68884384170175,1.90575101150326
1.60764891665895,0.480905932411552,-0.0156880795955658,-1.64710933998227,1.71595040998476
1.6176219166955,0.28093115709722,0.269803394079208,-1.32942426636815,1.38531045852298
1.62759391660802,0.53925493195653,0.793074231147766,-1.15111751809716,1.49827706323638
1.63756691664457,0.872839608192444,0.977728132009506,-1.03190784752369,1.66812322312631
1.64753991668113,1.09296374246478,1.27650155603886,-0.818348382264376,1.86914954983997
1.65751191659365,1.19678003311157,1.42660075128078,-0.250388883948326,1.87887379682999
1.6674849166302,1.67362558588386,1.81224333465099,0.427803858742118,2.50365026456705
1.67745791666675,1.70887377128005,1.6705576980114,0.890983518362045,2.55046353013464
1.68742991669569,1.488475548774,1.41560564696789,1.10389467358589,2.33196960902083
1.69740291661583,1.22825150191784,1.26895806312561,1.46830133914948,2.2966856860448
1.70737491664477,0.825495580136776,0.890581814646721,2.21759980559349,2.52830532554379
1.71734791668132,0.676792115271092,0.552082407474518,1.96660705044866,2.15183313544762
1.72732091660146,0.971287862509489,0.241015797257423,0.501623348370195,1.11942606277325
1.73729291663039,0.908273735046387,-0.18320729970932,-0.475548055619001,1.04147589777436
1.74726591666695,0.778426955938339,-0.83414331972599,-0.629829471856356,1.30323780147515
1.75723891658708,0.803567936718464,-1.31207543134689,-0.422977055311203,1.59567319830404
1.76721091661602,0.41682139903307,-1.66846673369408,0.930989290773869,1.95557213614617
1.77718391665258,-0.231490682959557,-2.23089286565781,4.25707149535418,4.81176980235932
1.78715591668151,-0.452147937119007,-2.51207728028297,6.02124165415764,6.53990222227503
1.79712891660165,-0.225917701721191,-2.09966965198517,3.17446302562952,3.81272434835085
1.8071019166382,0.206864841878414,-1.43021725416183,-0.00375859022140503,1.445105042517
1.81707391666714,0.50067164093256,-0.959683624505997,-1.4860327282548,1.83846621416426
1.82704691658728,0.576117972135544,-0.604298043251038,-1.90047138690949,2.07578407724798
1.83701991662383,0.56517110735178,-0.416622301340103,-1.73587928295136,1.87250351335822
1.84699191665277,0.45667865216732,0.0143408811092377,-1.32722790598869,1.40367195834763
1.85696491668932,0.507888566851616,0.378686735630035,-0.925815382003784,1.1218237658543
1.86693791660946,0.835978468358517,0.614825955033302,-0.329415611475706,1.08875415022198
1.8769099166384,1.33070670694113,0.7275643658638,0.488533698320389,1.59335979011882
1.88688291667495,1.69817292809486,0.688066424131394,1.28306388616562,2.23684591192904
1.89685491658747,1.41590765565634,0.547366043329239,1.52884092494845,2.15447410022339
1.90682791662402,0.754471790492535,0.379180825352669,1.08199246555567,1.37248441757398
1.91680091666058,0.253547842204571,0.156253389716148,0.511259486675262,0.591682256620759
1.92677291668952,-0.00920117855072022,-0.0933484590053558,0.158195103853941,0.183913804182166
1.93674591660965,-0.222503804862499,-0.274934325814247,0.00880137518048287,0.353799789279603
1.9467189166462,-0.454730944633484,-0.378844610452652,0.0299880301952362,0.5926236181855
1.95669091667514,-0.695374274253845,-0.363040171265602,0.152651212513447,0.799153264354495
1.96666391659528,-0.820062347352505,-0.370191316008568,0.215010013282299,0.925080088319444
1.97663591662422,-0.908796476125717,-0.383504256606102,0.254973978102207,1.01882200573151
1.98660891666077,-1.00193297356367,-0.328160360455513,0.292934102118015,1.09424370862807
1.99658191669732,-1.06705282956362,-0.244369175434113,0.273279856145382,1.12827297882955
2.00655391660985,-1.05080020129681,-0.193210131525993,0.224157835990191,1.09167667072513
2.0165269166464,-0.955231846868992,-0.18723837018013,0.123163850158453,0.981170435004189
2.02649950003251,-0.776982986032963,-0.216936963200569,-0.0404030907154083,0.807710725647952
2.03647149994504,-0.643839254379273,-0.18510530591011,-0.243947445005178,0.712953936576752
2.04644449998159,-0.576226437985897,-0.0311387622356415,-0.541887494623661,0.791611386462443
2.05641750001814,-0.495430489182472,0.159886264801025,-0.92749002456665,1.0636036540715
2.06638949993067,-0.3991379570961,0.265948909521103,-1.31991099268198,1.40435214952413
2.07636249996722,-0.272221510112286,0.292714539170265,-1.65255148977041,1.70020962776708
2.08633449999616,-0.13007891356945,0.262780888080597,-1.87566398978233,1.89844402642322
2.09630750003271,-0.0191657111048698,0.217092499136925,-1.97788267493248,1.98985334973755
2.10628049995285,0.0640384134650231,0.133456265330315,-1.92097859546542,1.92667336551667
2.11625249998178,0.139962462186813,0.0700467199087143,-1.70833875104785,1.71549331742304
2.12622550001834,0.136585987508297,0.0859078770875931,-1.39568125963211,1.40497760616232
2.13619849993847,0.101490122079849,0.104362859129906,-1.1070508544147,1.1165811414787
2.14617049996741,0.0752644827961922,0.0923906850814819,-0.888222463130951,0.896180743528234
2.15614350000396,0.011916917860508,0.0642989069223404,-0.721190754622221,0.724149478295242
2.1661155000329,-0.043395988047123,0.0278567200899124,-0.605619513988495,0.607810993941714
2.17608849995304,-0.116438236534596,-0.00423279941082001,-0.55118544459343,0.563365932454027
2.18606149998959,-0.150481310784817,-0.0150595039129257,-0.562786028087139,0.582751685509118
2.19603350001853,-0.196316172480583,0.0271147084236145,-0.599793640673161,0.631686360769558
2.20600649993867,-0.271094459295273,0.0758968591690064,-0.614857237637043,0.67624105300327
2.21597949997522,-0.349987724125385,0.144040310382843,-0.611808937937021,0.719408920290316
2.22595150000416,-0.451660279333592,0.211832343935967,-0.562569534927607,0.751900546278407
2.23592449992429,-0.536522674262524,0.274943096637726,-0.494725607335568,0.779874164811284
2.24589649995323,-0.597932471930981,0.292046202421188,-0.453584598004818,0.805328015708707
2.25586949998979,-0.663313698470593,0.27732525229454,-0.412635962069035,0.828952830583022
2.26584250002634,-0.693543218672276,0.250951386094093,-0.399091033190489,0.838601482899892
2.27581449993886,-0.709479804933071,0.223772943019867,-0.452822413444519,0.87090990449837
2.28578749997541,-0.727810241281986,0.237598684430122,-0.529072298258543,0.930633321422807
2.29576050001197,-0.73953390866518,0.281642836332321,-0.621141532659531,1.0060069050049
2.30573249992449,-0.772146461606026,0.389277212619782,-0.71906982332468,1.12463697131649
2.31570549996104,-0.819110128283501,0.575322166085243,-0.761055170595646,1.25743467811891
2.32567849999759,-0.875613234937191,0.901889744997025,-0.803448361158371,1.49185552865418
2.33565050002653,-0.923503685295582,1.33621039867401,-0.758213131427765,1.79254133535285
2.34562349994667,-0.741695039570332,1.80505535244942,-0.398981544077396,1.99186410923133
2.35559549997561,0.0868291059136391,2.47527782857418,1.39852037519217,2.84436264602324
2.36556850001216,1.09064283639193,3.21321223139763,3.37444452524185,4.78551047376464
2.3755414999323,1.24105017989874,3.61710572898388,2.59700340986252,4.62256272153361
2.38551349996123,1.07061699986458,3.9919280397892,0.260009307861328,4.14117315207041
2.39548649999779,1.15310864120722,4.47102316260338,-1.31449267029762,4.8007914596688
2.40545949991792,1.2453478834033,4.98880112528801,-1.19430212929845,5.27876743136301
2.41543149994686,1.33481437593699,5.8905552148819,0.332086765766144,6.04902072882689
2.42540449998342,1.44532675176859,7.07248799800873,0.890284191370011,7.27335286114724
2.43537650001235,1.88856090098619,8.05514767169952,-1.26770558953285,8.37013403425255
2.44534949993249,2.6749146348238,8.70028676211834,-2.91872072339058,9.55871794268645
2.45532249996904,3.78754680275917,8.89589542150497,-1.53242979973555,9.78932108088002
2.46529449999798,5.06937751114369,8.38200936555863,0.600924345999956,9.81416218657595
2.47526749991812,6.09261042952538,7.31987433671951,1.4408428144455,9.63205534490254
2.48524049995467,6.0472132319212,6.08353145778179,1.74177839264274,8.75282439211599
2.49521249998361,4.32859259068966,5.29362641751766,1.69608912661672,7.04527592006458
2.50518550002016,2.28030534625053,4.70332017660141,0.764417173415423,5.28255116120773
2.5151584999403,1.43369108498096,3.95137058258057,-0.307385787963867,4.21465130594206
2.52513049996924,1.58545205891132,2.91966621816158,-0.197045174092054,3.32820309735044
2.53510350000579,1.37920088231564,1.729643227458,0.623411421775818,2.29836954575893
2.54507549991831,0.33655871629715,0.703589027523994,0.789430100172758,1.10973382945034
2.55504849995486,-0.594707440137863,0.0367099893093109,0.115729115456343,0.606974291741197
2.56502149999142,-1.11862907230854,-0.589224506020546,-0.79362854719162,1.49277017347832
2.57499350002036,-1.30826538562775,-1.54732236564159,-1.58468315005302,2.57235019165517
2.58496649994049,-0.96208683013916,-2.82621133983135,-2.24539878442884,3.7356254238391
2.59493949997704,-0.321203927993774,-4.18950896501541,-2.73874225616455,5.01556242878149
2.60491150000598,0.360852143168449,-5.46791086614132,-3.3794357085228,6.43807806859583
2.61488449992612,0.989682764410973,-6.54799977064133,-4.33677576899529,7.91602154121852
2.62485649995506,1.05821856379509,-7.48955761134625,-5.46957089066506,9.33431869342619
2.63482949999161,0.208286007642746,-8.4571092492342,-6.27693688631058,10.5340408480881
2.64480250002816,-0.204262538552284,-9.84364253997803,-6.86282087802887,12.0015554010066
2.65477449994069,0.420383230447769,-11.5160526359081,-7.34461156725884,13.6652665340768
2.66474749997724,1.61963605105877,-12.9309747433662,-7.47664052724838,15.0244295174612
2.67472050001379,2.72090415537357,-13.887949937582,-6.52396771430969,15.583344558498
2.68469249992631,3.3575449025631,-14.0609456598759,-4.59979054570198,15.1704111245226
2.69466549996287,4.01486783623695,-13.364414806366,-2.53018493771553,14.1819809151651
2.7046374999918,6.18680030286312,-13.9116159582138,5.42259085178375,16.1621176861878
2.71461050002836,9.79594680190087,-16.0945289111137,14.3339965975285,23.6739919125251
2.72458349994849,8.17549389481545,-14.6822298645973,0.885298855304718,16.8282598115266
2.73455549997743,8.61892100214958,-16.229548137188,0.724529953300953,18.3904588205903
2.74452850001398,9.80186418414116,-19.0637882888317,3.37808734059334,21.7005999798721
2.75450149993412,8.85216409564018,-19.1670395922661,3.30681475192308,21.3698675641936
2.76447349996306,7.87546975135803,-18.463848760128,2.83438136190176,20.2724061854071
2.77444649999961,7.33741539895535,-18.1668546438217,2.18826198577881,19.7144810457942
2.78441850002855,6.66314372599125,-17.9920883846283,1.02133198857307,19.2134288398603
2.79439149994869,5.97590702176094,-17.9620313572884,-0.0292314004898071,18.9300525537495
2.80436449998524,5.17734342455864,-17.2403212237358,-0.635591171979904,18.0121497043333
2.81433650001418,4.37518086612225,-15.3624633586407,-0.967931999266148,16.002636670626
2.82430949993432,3.64320857673883,-12.4217419016361,-1.09904616236687,12.9915566069467
2.83428249997087,3.0363968154788,-8.91207700610161,-1.10537401914597,9.47980347401452
2.84425449999981,2.56144473731518,-5.82025647997856,-0.822354748249054,6.41191484402435
2.85422749991994,2.15626397520304,-3.11264655411243,-0.532027481049299,3.82375419479052
2.8642004999565,1.69261485725641,-0.4200411683321,-0.442495938241482,1.79921713349422
2.87417249998543,1.41449175238609,2.25882443010807,-0.479289104193449,2.70791299140498
2.88414550002199,1.57074280321598,4.59209327101708,-0.730820241719484,4.90801913090017
2.89411749993451,1.77413176774979,5.8994067299366,-1.26851133584976,6.2896473910498
2.90409049997106,2.67219451010227,6.25713353633881,-2.47915862560272,7.24144813433728
2.91406350000761,4.96848438978195,6.78633929729462,-5.22369430303574,9.90086967700717
2.92403549992014,8.20389557540417,8.4757764852047,-7.82512756347656,14.155398652951
2.93400849995669,10.7247477722168,10.506532022953,-8.75073244571686,17.3776508269538
2.94398149999324,10.5598609685898,11.9430537450314,-7.93351740002632,17.8069619747214
2.95395350002218,9.24851117670536,12.7925711488724,-7.30660466551781,17.3945769515321
2.96392649994232,8.27883115231991,13.2538158917427,-6.95541972398758,17.1049859537408
2.97389949997887,7.21548984289169,12.8988992571831,-5.34237874746323,15.7157852619962
2.98387150000781,7.37776644945145,12.543512506485,-4.85435024857521,15.3406603547187
2.99384449992795,4.48967607289553,11.5537987518311,-2.03258103847504,12.5610048370069
3.00381649995688,1.96671814754605,10.6031163311005,0.0406757171452045,10.7840489018133
3.01378949999344,0.820022001564503,10.2208815050125,0.918093549013138,10.2947438330099
3.02376274997368,0.401053541488946,10.2910621261597,1.41567873716354,10.3957178643168
3.03373475000262,0.154605333711952,10.6717988955975,2.07760679170489,10.8732536279729
3.04370774992276,-0.41138056486845,11.4769441187382,3.9364227604866,12.1402184668591
3.05368074995931,-1.9156539747119,13.3205723834038,10.062971599102,16.8038916973617
3.06365274998825,-2.84842695862055,14.5074308609962,17.1722327363491,22.6597586808978
3.0736257500248,-3.01936212211847,12.9632724237442,19.5591562128067,23.6584777894451
3.08359774993733,-1.93667851567268,10.6820350313187,14.1775052261353,17.8566024349673
3.09357074997388,-0.682793697416782,10.1084372091293,6.89026186108589,12.2524454113649
3.10354375001043,-0.445459014773369,9.49354576528072,3.53615044355393,10.140522910125
3.11351574992295,0.0350099113583565,9.15588835716248,1.48439287662506,9.27550211659142
3.12348874995951,0.483640236631036,9.15156083285809,0.701168938055635,9.19111589719577
3.13346174999606,0.642100365534425,9.25539276480675,0.728387800008059,9.30618809703829
3.143433750025,0.669299346953631,9.10411652505398,0.792482419833541,9.16301957344514
3.15340674994513,0.482592634856701,8.90773252487183,0.418349568843842,8.93059968577862
3.16337974998169,0.19232873685658,8.76584749817848,-0.266385038718581,8.77200283248905
3.17335175001062,-0.0258838695287704,8.7777676320076,-0.719411008358002,8.80723718172554
3.18332474993076,-0.282007702589035,9.20468571066856,-1.13283371329308,9.27842010250015
3.1932967499597,-0.691750316172838,9.88865323662758,-1.42851454496384,10.0152201742829
3.20326974999625,-1.01286785155535,10.4858586072922,-1.48470394849777,10.6387723836692
3.21324275003281,-1.20440502159297,10.8132792949677,-1.2998839867115,10.957522482109
3.22321474994533,-1.16030130118132,10.8538215494156,-1.03009930372238,10.9641618882435
3.23318774998188,-0.898127207905054,10.7535149037838,-0.65529972396791,10.8108340564321
3.24316075001843,-0.734510127156973,10.7439500284195,-0.315831433162093,10.7736584702804
3.25313274993096,-0.471153288334608,10.7219095337391,-0.0903500433638692,10.7326367962924
3.26310574996751,-0.145496705621481,10.6850358223915,0.0438331039622426,10.6861162803958
3.27307774999645,0.207100046128035,10.6244177377224,0.0423150936886668,10.6265202800301
3.283050750033,0.513958561420441,10.5250045466423,-0.0644889414310455,10.5377432561847
3.29302374995314,0.729079817980528,10.3824716484547,-0.144922107048333,10.4090478589092
3.30299574998207,0.857780689001083,10.2115680599213,-0.181654279232025,10.2491418289528
3.31296875001863,1.0091300920397,10.043865237236,-0.378614193610847,10.1015306342169
3.32294174993876,1.07808725640178,9.91931018829346,-0.830096388682723,10.0121949021432
3.3329137499677,1.18104956120253,9.86190690279007,-1.57306707143784,10.0561735186182
3.34288675000425,1.46898517102003,9.80247404873371,-2.45212928652763,10.2107469338252
3.35285974992439,1.94792885094881,9.73786640882492,-3.22107205867767,10.4401041283923
3.36283174995333,2.46370297282934,9.66477913677693,-3.63511339902878,10.615641173514
3.37280474998988,3.39332693874836,9.6047972291708,-4.05256600499153,10.9631240416013
3.38277675001882,5.33026097774506,9.75917073905468,-4.36795429229736,11.9470548799481
3.39274974993896,6.97632702827454,9.60964164733887,-4.31610352277756,12.6349950935897
3.40272274997551,6.9845482134819,8.15830658912659,-3.39310649871826,11.2629947997983
3.41269475000445,5.55837606310845,6.35158478021622,-2.2139183986187,8.7258013015971
3.42266774992459,4.98723874926567,4.43724847555161,-3.53160130977631,7.55208131492079
3.43264074996114,6.29531410038471,-0.0194016462564468,-8.07283900737763,10.23728898124
3.44261274999008,9.03300385773182,-6.44533377349377,-12.8146701157093,16.9514971704564
3.45258575002663,11.5222214484215,-13.380546104908,-14.2379081332684,22.6830030900545
3.46255874994677,11.1243652009964,-20.4733753967285,-14.0157852745056,27.1910433437475
3.4725307499757,6.68431941747665,-33.4531743907928,-14.4807196104527,37.0605753238155
3.48250375001226,0.214829480499029,-48.5831489467621,-15.7135605919361,51.0615755707304
3.49247574992478,-4.56407926082611,-56.5310586833954,-14.4175661730766,58.518865588113
3.50244874996133,-3.65752519190311,-54.6142338037491,-7.74277654767037,55.2814852655673
3.51242174999788,0.973915308862925,-40.1148183059692,-0.874778106361628,40.1361731544642
3.52239375002682,0.923592709153891,-24.526585764885,1.34422371536493,24.5807520261608
3.53236674994696,-5.65831491887569,-15.7072958850861,8.05951671123505,18.5389180202484
3.54233974998351,-11.5825986278057,-10.4742168009281,22.4865343236923,27.3771809077612
3.55231175001245,-16.3270492887497,-4.55817123413086,36.9110890889168,40.6174588226156
3.56228474993259,-12.9114473819733,-0.992870081663132,27.8953444576263,30.7545363630498
3.57225674996153,-8.18078679442406,-1.30103179514408,12.4521637952328,14.9557460359256
3.58222974999808,-6.26836311399937,-2.70709186255932,3.71777928739786,7.77448424727244
3.59220274991822,-6.13491035699844,-4.27854919552803,-0.151226538419724,7.48104122250925
3.60217474994715,-6.17137827157974,-5.6146946901083,-2.57631362199783,8.73201569587163
3.61214774998371,-5.48334926962853,-6.69447661578655,-4.67183408975601,9.83408206871669
3.62212075002026,-3.67367110848427,-7.49274025082588,-6.49285117149353,10.5732744320207
3.63209274993278,-2.35280614256859,-8.40044797539711,-8.26609416246414,12.0179672005954
3.64206574996933,-1.40894976139069,-9.49313996851444,-11.7694043040276,15.1863005226287
3.65203774999827,-0.70296220600605,-9.06960391938686,-14.9617454838753,17.5101598805349
3.66201074991841,0.773267957568169,-7.1626479703188,-14.5474398493767,16.233590959863
3.67198374995496,1.38747586190701,-4.70831369876862,-10.8236393916607,11.8846319603973
3.6819557499839,0.798251063525677,-2.55168398022652,-7.07785808086395,7.56600098521112
3.69192875002045,0.32035081923008,-0.894366717338562,-3.98221932291985,4.09396961497036
3.70190174994059,0.175802093446255,0.40888409614563,-1.69850504994392,1.75585078660629
3.71187374996953,0.335008911788464,1.47149625778198,-0.32694026581943,1.54415742236928
3.72184675000608,0.515819437801838,2.19583588421345,0.626505768299103,2.34099859045786
3.73181974992622,0.626474485695362,2.72151694357395,1.3138621942699,3.08631797145386
3.74179174995516,0.85182003736496,3.14976994156838,1.54569493934512,3.6105153242136
3.75176474999171,1.23523687809706,3.65691181898117,1.63286186814308,4.19106813082904
3.76173675002065,1.48003056138754,4.21021161675453,1.7410656170547,4.79037386885262
3.77170974994078,1.66576064229012,4.73328072488308,1.93141865283251,5.37671674448839
3.78168274997734,1.74376893103123,5.38984118163586,2.34633809879422,6.1315920055024
3.79165475000627,1.39293803840876,7.00571630358696,3.8757590675354,8.1266134185633
3.80162774992641,1.013671258986,8.14176189243794,5.47768565654755,9.86513336384235
3.81160074996296,1.37287185609341,7.68524754703045,5.72364761352539,9.68028661746158
3.8215727499919,2.28183439314365,6.4213157504797,5.3129204750061,8.64101777216266
3.83154575002845,3.17513282418251,5.27747933149338,4.86904283970594,7.85116772973503
3.84151874994859,3.71197270989418,4.67552836060524,4.47076471567154,7.45835397341241
3.85149074997753,3.89619830220938,4.40622841179371,3.86106062918902,7.03583678103115
3.86146375001408,3.92179916650057,4.28847835242748,3.20595145136118,6.63699329441341
3.8714357499266,3.98468217015266,4.17696610271931,2.6926767218113,6.36987015162657
3.88140874996316,4.11754552781582,3.97409695565701,2.20934558361769,6.13423472769418
3.89138174999971,4.29522253096104,3.48060423374176,1.84064735412598,5.82679372422496
3.90135375002865,4.38785704493523,2.58360217630863,1.55979126065969,5.32552705645599
3.91132674994878,4.20294411242008,1.38047616004944,1.33107171937823,4.61976250068334
3.92129974998534,3.69075667262077,-0.0673564159870148,0.999306696653366,3.82424313783076
3.93127175001428,3.21081487298012,-1.88883016526699,0.0554595248401165,3.72559891838458
3.94124474993441,2.93240203857422,-4.06266356170178,-1.95752047732472,5.37922888066303
3.95121674996335,2.51455240666866,-6.27533942699432,-4.17100720524788,7.94356090403431
3.9611897499999,1.69062007963657,-7.73172531008721,-4.15061796426773,8.93674448608751
3.97116274992004,1.26570788830519,-7.63833007335663,-3.6295339858532,8.55100109475643
3.98113474994898,1.49480764478445,-5.78308689951897,-3.2464922440052,6.79840097910383
3.99110774998553,1.96969861954451,-3.44789140105248,-2.75091382026672,4.83065157218171
4.00108075002208,2.44616191059351,-1.81651297152042,-2.48946726679802,3.93457427697067
4.01105274993461,2.87373341560364,-0.684351103305817,-2.18596636891365,3.67493253578544
4.02102524996735,3.25025171130896,0.137581475973129,-1.92061621427536,3.77780776270249
4.0309982500039,3.50293036490679,0.717828167080879,-1.76271683335304,3.98659868226373
4.04097025003284,3.52948344826698,0.971224274039269,-1.59754819393158,3.99408190126439
4.05094324995298,3.12556948542595,0.80072999060154,-1.29574766635895,3.47696924647734
4.06091524998192,2.2998245215416,0.257514885663986,-1.06485025651753,2.54743259283303
4.07088825001847,1.55834349006414,-0.391155923008919,-0.57632262468338,1.70692271554754
4.08086124993861,0.953251979649067,-0.803271775245667,0.210992245227098,1.26429925617204
4.09083324996755,0.454944075644016,-0.84622308254242,1.02147363737226,1.40231095311906
4.1008062500041,-0.0347383081912994,-0.541481405496597,1.90944525495172,1.98504157241409
4.11077924992424,-0.702800530493259,-0.0748876297473908,3.16437043905258,3.24234128652439
4.12075124995317,-1.83411806076765,0.559080939888954,5.11888647079468,5.46621983266919
4.13072424998973,-3.25326390445232,1.36638963282108,6.60699232935906,7.49019988390849
4.14069625001866,-3.94560493558645,2.12243169307709,5.80826851844788,7.33542758003206
4.1506692499388,-3.77605059206486,2.6779464161396,4.00996553063393,6.12452272739848
4.16064224997535,-3.4428873538971,3.09683158993721,2.30697932079434,5.17358606912365
4.17061425000429,-2.89335433244705,3.82253127872944,1.15418452888727,4.93106343466374
4.18058724992443,-1.88236372947693,4.77914219141007,0.658167271614075,5.17848215727254
4.19056024996098,-0.564546624720097,5.71792669773102,0.28231029599905,5.75266005560341
4.20053224998992,0.939388231337071,6.54282381534576,-0.151344652175903,6.61164873020131
4.21050525002647,2.42281938716769,7.31145434617996,-0.532402872294188,7.72080768168309
4.22047824994661,3.71956590414047,7.74633340895176,-0.800785392969847,8.6303017933025
4.23045024997555,4.77599229633808,7.98898642659187,-0.992791728973389,9.36053641390641
4.2404232500121,5.81231596112251,8.17090266108513,-0.976704430729151,10.074751544026
4.25039524992462,6.75167349457741,8.18408579349518,-0.541215941905975,10.6234302345543
4.26036824996118,7.66795966923237,8.07490541338921,0.501506623327732,11.146892473573
4.27034124999773,8.45734840035439,7.88690339684486,2.14205304846168,11.7608834029831
4.28031325002667,8.59352537512779,7.008158685565,2.54034213602543,11.3761287221573
4.2902862499468,6.96890983521938,5.91133154153824,0.652444016933441,9.16161711056703
4.30025924998336,4.17162203997374,5.50074181258679,-0.545320687294006,6.92516899325396
4.31023125001229,1.28373777776957,5.21661449432373,-0.835200496315956,5.43678299488839
4.32020424993243,-1.26791082680225,4.00011063337326,-0.873664942681789,4.28623067228298
4.33017724996898,-3.44843957751989,1.739290548563,-1.49612940788269,4.14189212042728
4.34014924999792,-6.92965923070908,-3.5458907353878,-3.1937143984437,8.41387721682978
4.35012224991806,-9.82941392540932,-11.3082706582546,-4.7770637986064,15.7262424607192
4.360094249947,-11.9506785142422,-20.2854996800423,-6.19510159492493,24.3454204726722
4.37006724998355,-11.0416329467297,-28.2293491101265,-7.31398268222809,31.1818561344195
4.3800402500201,-5.80240142226219,-32.3725949048996,-7.7630769109726,33.7922790925306
4.39001224993262,-1.74379538968205,-32.4072057437897,-7.31626309633255,33.2685363696113
4.39998524996918,-5.31796662211418,-30.397265124321,-5.12750058889389,31.2820357125506
4.40995825000573,-9.30696813046932,-26.631227889061,-3.32186197668314,28.4055755381369
4.41993024991825,-8.18340459287167,-22.6401757621765,-2.41558681994677,24.1946425672623
4.42990324995481,-5.45736073493958,-20.5696533107758,-1.6047572261095,21.341711957374
4.43987524998374,-4.74802155554295,-18.4299512815476,0.276801634132862,19.0337445626649
4.4498482500203,-5.09643550157547,-17.0596796822548,1.33101076215506,17.8543528399051
4.45982124994043,-5.8043596547842,-17.4334793150425,1.14532219648361,18.4100123564287
4.46979324996937,-6.8372954428196,-18.5743845248222,0.307038755714893,19.7952176609874
4.47976625000592,-7.82102983474732,-19.6805210208893,-0.419256764352322,21.1817655440742
4.48973924992606,-8.46083684921265,-20.3658801841736,-0.910183435678482,22.0722284727141
4.499711249955,-8.53634896159172,-20.34116751194,-1.05953535676003,22.0851752203847
4.50968424999155,-7.45090810060501,-18.4765570986271,-0.855310678929091,19.9406807832626
4.51965625002049,-5.12610368907452,-14.4444890928268,-0.409877976626158,15.3325863486778
4.52962924994063,-2.73960004270077,-9.96826073884964,-0.0551007981598377,10.3380204415359
4.53960224997718,-0.744419549703598,-6.37354165971279,-0.314204810857773,6.4245558926078
4.54957425000612,0.955283010005951,-3.6338275963068,-0.322263443470001,3.77109034045646
4.55954724992625,1.96053340137005,-1.68383438587189,-0.0268832317739725,2.58451391272765
4.56952024996281,3.6041114616394,0.0573541688919067,-0.738886914253235,3.67951937087773
4.57949224999175,5.70848812222481,1.83613213419914,-2.31033898472786,6.42618736734106
4.5894652500283,6.52843206346035,3.6233137178421,-3.31093265354633,8.16768648648069
4.59943824994843,8.03426375627518,5.56040913999081,-6.40467399001122,11.6827818959277
4.60941024997737,12.0010335659981,7.42626442551613,-10.4403310167789,17.554905915721
4.61938325001393,19.4640266919136,7.74743560910225,-14.0890707671642,25.2462474174455
4.62935524992645,22.6390671300888,7.40223353862763,-14.0708052349091,27.6642003650891
4.639328249963,19.2583824563026,8.04820117950439,-10.880898835659,23.5383261199867
4.64930124999955,13.6801200127602,8.92298966467381,-7.7311651468277,18.0703166172295
4.65927325002849,9.19450804710388,8.81996815681458,-4.6436072409153,13.5607486785709
4.66924624994863,6.96015947699547,8.49964715838432,-2.87807555794716,11.3565461597923
4.67921924998518,4.7057347843051,8.55140788078308,-0.624447548389435,9.7806161024972
4.68919125001412,2.49508556395769,8.47409365653992,1.05099023580551,8.89608316884676
4.69916424993426,0.62260531000793,8.58714255452156,2.14973687455058,8.87400829690437
4.70913724997081,-5.53152389466763,10.6653049778938,7.51368848562241,14.1704622905444
4.71910924999975,-9.31572901368141,12.1276561903954,10.41407351017,18.5017777201004
4.72908224991988,-6.544896068573,11.4834204947948,7.85428178071976,15.3751212385348
4.73905424994882,-3.53372092545033,11.1947048664093,4.65135830998421,12.6271031813648
4.74902724998537,-2.7692448413372,11.4046456360817,3.78237669467926,12.3304919827362
4.75900025002193,-2.87107000887394,11.8047518920898,4.44931245088577,12.9379902425091
4.76897224993445,-2.68921984791756,12.5192243421078,6.30694128870964,14.2737657938502
4.778945249971,-2.26770898193121,13.7380682587624,9.20912140846253,16.6938593687903
4.78891825000756,-1.93655280053616,13.1007778859139,6.36500063180924,14.6933267508841
4.79889024992008,-2.17137069538236,11.3959812319279,2.67965146422386,11.9064592093928
4.80886324995663,-2.61233773291111,10.1212776947022,1.4585223095119,10.5542341233938
4.81883624999318,-2.9963083049655,9.306539529562,0.37663436293602,9.78424217387578
4.82880825002212,-3.1438455426693,8.87759597539902,-0.821892745122314,9.45362273327359
4.83878124994226,-3.28150507897139,8.72317685723305,-1.71711322903633,9.47684377349404
4.8487532499712,-3.2943119430542,8.73584601938725,-2.13691173791885,9.57778098665077
4.85872625000775,-3.18116919726133,9.03254426658154,-2.06880687832832,9.79727795304277
4.86869924992789,-2.88914813786745,9.55045203745365,-1.61512843251228,10.1077668619609
4.87867124995682,-2.46219205230475,9.97817761659622,-1.05652740284801,10.3316343529832
4.88864424999338,-2.04708184093237,10.308648211956,-0.610822366476059,10.527671916655
4.89861725002993,-1.70736153513193,10.625901761055,-0.146555636376143,10.7631942378549
4.90858924994245,-1.36583356261253,10.8754375362396,0.299447754174471,10.9649583621138
4.918562249979,-0.88836162686348,10.967280921936,0.818874339312315,11.0336300637791
4.92853525001556,-0.431201748847962,11.0203467428684,1.41202890515327,11.1188040233763
4.93850724992808,0.0568521854281426,11.1063066601753,1.9192947435379,11.2710679224914
4.94848024996463,0.445766614861786,11.1733414793015,2.35186254814267,11.4268773133065
4.95845224999357,0.848787378966808,11.1981383514404,2.82543190598488,11.5802335040383
4.96842525003012,1.22294522680342,11.1411420321465,3.20312022954226,11.6567842912668
4.97839824995026,1.44864300012589,11.0069227051735,3.40607825428247,11.6125915735366
4.9883702499792,1.49419339478016,10.869499104023,3.28751280069351,11.453661645434
4.99834325001575,1.3615522313118,10.7836900448799,2.86251582473516,11.2399195864335
5.00831624993589,1.22932300418615,10.7648783826828,2.37767785906792,11.0926639561502
5.01828824996483,1.18930553734303,10.7977116680145,2.03090186432004,11.0512256021326
5.02826087502763,1.14638441629708,10.8010247004032,1.72974935442209,10.9985619349883
5.03823387494776,1.14267370015383,10.7087380957603,1.4270328605175,10.8636640952125
5.0482058749767,1.12928971588612,10.5988256442547,1.14506959676743,10.720148538204
5.05817887501326,1.11591450244188,10.5306061792374,0.821858027279377,10.6214115020536
5.06815087492578,1.11074819505215,10.4569546508789,0.491685347557068,10.5272701401813
5.07812387496233,1.10968049347401,10.3721735322475,0.187329440563917,10.4330468656072
5.08809687499888,1.08011697113514,10.2645391559601,-0.0829160030186176,10.3215450306206
5.09806887502782,0.95739590138197,10.2627791440487,-0.169466489106417,10.3087322965743
5.10804187494796,0.946595216989517,10.2600835776329,-0.5170533464849,10.3166225911367
5.11801487498451,0.968083442151547,9.9242744743824,-0.963161402195692,10.0177886422366
5.12798687501345,0.301473010405898,9.07731113433838,-0.586131767481566,9.10120947206676
5.13795987493359,-0.131342241056263,8.54989462137222,-0.341292475908995,8.55771169033915
5.14793287497014,-0.300883684158325,8.0018234038353,-0.839187712669373,8.05133186464539
5.15790487499908,-0.317708827927709,6.63988350212574,-2.44460377380252,7.08273107155949
5.16787787491921,0.808028192818165,3.46232349872589,-6.80754364013672,7.68005494658628
5.17784987494815,5.47775699257851,-8.05104818880558,-17.4019230616093,19.9412167344518
5.1878228749847,12.6564467990398,-28.4543335962296,-23.0101314353943,38.7208069990356
5.19779587502126,13.3131066584587,-45.3679662036896,-24.0527484583855,53.0473927234976
5.20776787493378,6.91891204833984,-67.851651763916,-24.7052345752716,72.5401034355727
5.21774087497033,2.60303247392178,-69.4248661851883,-18.9930475044251,72.0230773877161
5.22771387500688,1.98069810926914,-68.9414698505402,-9.76095004677773,69.6572004603163
5.23768587491941,-1.04203551739454,-68.4892274808884,-4.91163132727146,68.6730241160488
5.24765887495596,-0.877189717367292,-55.5892733860016,-1.09324484735727,55.6069416681061
5.2576308749849,-3.48335184037685,-31.6752372550964,2.42895180076361,31.9586326688258
5.26760387502145,-4.96475094258785,-15.6736627006531,8.33103158533573,18.4314552233846
5.27757687494159,-1.192294049263,-9.01566803276539,11.7137715554237,14.8295744790466
5.28754887497053,2.47504393994808,-2.50587163031101,17.3778126525879,17.731147952705
5.29752187500708,3.92131794065237,0.759936305880547,25.048508234024,25.3649758984835
5.30749487492722,2.76556635797024,1.20493046700954,26.4359542751312,26.607515726717
5.31746687495615,0.698043528199196,-1.23099443078041,19.5888460350037,19.6398956473539
5.32743987499271,-0.236663714647293,-4.21911458730698,11.4053052020073,12.1629735001599
5.33741287502926,-1.36045734018087,-5.91864816248417,7.17765718817711,9.40212757607127
5.34738487494178,-2.39438364654779,-6.79820154368878,5.09583967030048,8.82701530648249
5.35735787497833,-2.6625349098444,-7.52491513967514,3.55868327379227,8.73943171199484
5.36732987500727,-2.38318505913019,-7.29472780108452,2.64316074550152,8.11658323708547
5.37730287492741,-1.40711841344833,-5.85820958733559,1.82578665554523,6.29540298235014
5.38727587496396,-0.423509151935577,-4.50381668686867,1.29087810516357,4.70426307013974
5.3972478749929,0.219612064361572,-3.18378787279129,0.896933937370777,3.31500002500053
5.40722087502945,0.72538773983717,-1.74494188249111,0.497383459210396,1.95407263218996
5.41719387494959,1.46954124122858,-0.332982559204102,-0.448429985046387,1.57210632461499
5.42716587497853,3.22057650715113,1.19289338886738,-3.14370520949364,4.65596285636115
5.43713887501508,4.34167602807283,2.94503553271294,-4.49106507897377,6.90601553468147
5.4471108749276,5.316862667799,4.41381400465965,-5.51047333359718,8.83833123707468
5.45708387496416,6.4853158646822,6.00458410620689,-7.22120841979981,11.4131592118659
5.46705687500071,7.97953615665436,7.36709294199944,-9.04067715883255,14.1308492024241
5.47702887502965,9.93858611941338,8.87058165550232,-11.7697995758057,17.7761327350626
5.48700187494978,11.0366335773468,9.95114009141922,-13.4488626337051,20.0425641069186
5.49697487498634,10.5346337413788,10.4641139817238,-12.3560998892784,19.317075191688
5.50694687501527,9.12454260349274,10.5057800710201,-9.12675285100937,16.6411030351658
5.51691987493541,7.48901440501213,10.2453930330277,-6.09871726155281,14.0800485580147
5.52689287497196,6.06288786292076,9.95168739080429,-3.96332112193108,12.3086394649527
5.5368648750009,5.21645194172859,9.75111503005028,-2.01317778423429,11.2404848641227
5.54683787492104,4.94374715924263,9.89051148176193,-0.417993765771389,11.0651512476607
5.55680987494998,4.35176890701056,9.90959679365158,0.960652069598436,10.865581145599
5.56678287498653,3.852143625319,9.73526322841644,1.68613131836057,10.6045933189066
5.57675587502308,3.40863933473826,9.5472325605154,2.0781752872467,10.3482986139468
5.58672787493561,3.14384846627712,9.58763097345829,2.42357353180647,10.3769051034594
5.59670087497216,2.80826155722141,9.56004322528839,3.2736408662796,10.4879685337307
5.60667387500871,1.97404982507229,8.8689970600605,6.58408878564835,11.2207934969204
5.61664587492123,-1.11710061013699,5.81359533190727,15.941124869585,17.0048600865766
5.62661887495779,-0.702493551671505,4.3511944180727,16.4566645181179,17.0366721256203
5.63659187499434,1.65546691149473,6.13056879937649,8.32044286251068,10.4668148893179
5.64656387502328,2.2328464204073,7.14268674552441,3.95494673967362,8.46434762964463
5.65653687494341,2.16167352676392,6.73575795829296,1.04835431098938,7.15138549306279
5.66650887497235,1.66206344783306,4.80209543645382,-0.141998462677002,5.08357541980405
5.6764818750089,1.24437987685204,1.86835263133049,-0.778325068205595,2.37592355615897
5.68645487492904,1.58588972300291,-2.51016348659992,-2.99655418038368,4.21844804388541
5.69642687495798,1.11160919755697,-10.1886282634735,-8.42609152436257,13.2681136291592
5.70639987499453,0.11065007776022,-17.5008193588257,-13.3253203225136,21.9967061935998
5.71637287503108,-0.930800133347511,-24.6941365599632,-16.9097933256626,29.9434112894135
5.72634487494361,-0.602587732672691,-28.317438583374,-16.2404847693443,32.6495602641449
5.73631787498016,1.45506441235542,-27.1772689533234,-12.0192581677437,29.7520373606288
5.74629087501671,3.081265424788,-20.4998609447479,-7.45372411966324,22.0294461715234
5.75626287492923,2.85548659443855,-12.8977812695503,-3.83163013100624,13.7545612372411
5.76623587496579,2.17722945928574,-7.30264726996422,-1.86342459797859,7.84482864696541
5.77620787499473,1.59124986559153,-3.51531038224697,-0.630444452762604,3.90985209775223
5.78618087503128,1.18337214834988,-1.06013586580753,0.156962730064988,1.59652591400552
5.79615387495142,0.917412056028843,0.607708724141121,0.57176998257637,1.24011115909812
5.80612587498035,0.701082326173782,1.73679846525192,1.00287934541702,2.12455932335126
5.81609887501691,0.502721090018749,2.38163174629211,1.48760884523392,2.85269667958482
5.82607187493704,0.354950840771198,2.62638800740242,2.37181894898415,3.55660360337664
5.83604387496598,-0.426808443367481,2.80200328230858,7.79388355135918,8.293250789259
5.84601687500253,-1.47993378996849,3.09521425008774,14.8101330292225,15.2023220469737
5.85598987492267,-1.23463812321425,3.02760640382767,11.3881775379181,11.8482622973554
5.86596187495161,0.292625661492348,2.61848958849907,5.12984064459801,5.76692140936666
5.87593487498816,1.60354787573218,2.48365805804729,2.51833467811346,3.8835464063221
5.8859068750171,2.07892504647374,2.41062750399113,1.69055649116635,3.60430791715678
5.89587987493724,2.08554277896881,2.39936518192291,1.64570118427277,3.57977294629837
5.90585287497379,2.09955913960934,2.42188105523586,1.62510729074478,3.59369310499093
5.91582487500273,1.97287599653006,2.40762905180454,1.55474102050066,3.47938744459497
5.92579787492286,1.7547593575716,2.46390440940857,1.37717716097832,3.32364593096322
5.93577087495942,1.43550796106458,2.56793865501881,1.13866353347898,3.15460721559664
5.94574287498836,1.0402006611228,2.60925040304661,0.787570831775665,2.91727148141256
5.95571587502491,0.552520363926888,2.51451323032379,0.235676704645157,2.58526575948
5.96568887494504,0.18953917644918,2.22225126564503,-0.506962660253048,2.28721160498123
5.97566087497398,-0.0705462183058262,1.70180872678757,-1.59067786172032,2.33053336626076
5.98563387501054,-0.0813143044710159,1.14994851350784,-2.68946776986122,2.92612892486862
5.99560587492306,0.215420780181885,0.652863847017288,-3.77804273843765,3.84008388563816
6.00557887495961,1.09496962979436,0.313171023130417,-4.08457951068878,4.24038021397128
6.01555187499616,2.08565709203482,0.0921714144945145,-3.41784255981445,4.00501046676336
6.0255238750251,3.11634725689888,-0.126400430202484,-2.95554414868355,4.29684052638146
6.03549687494524,4.1261029279232,-0.504722884297371,-3.01106112241745,5.13283154259749
6.04546987498179,4.93882614254952,-1.04760235905647,-3.15038389921188,5.95099933468696
6.05544187501073,5.5743015396595,-1.58103331804276,-3.39385260343552,6.71496384961659
6.06541487493087,6.08732396185398,-1.98562204957008,-3.49890601873398,7.29661231450825
6.07538787496742,6.35965861558914,-2.11786501765251,-3.18462285518646,7.42108028993148
6.08535987499636,6.2663066482544,-1.78422406196594,-2.59651692152023,7.01369764368242
6.09533287503291,5.91526320934296,-0.989791522622109,-2.01290632724762,6.32627994767339
6.10530487494543,5.55444556474686,0.0400814938545227,-1.39287576556206,5.72656746718099
6.11527787498198,5.39209294438362,1.05972129821777,-0.813815474510193,5.55517517071426
6.12525087501854,5.70651410222054,1.78991574168205,-0.286581321582198,5.98750619331979
6.13522287493106,5.87881576001644,2.06696559011936,-0.0101087395101786,6.23160682950791
6.14519587496761,5.91599118769169,2.01580596148968,0.249002472572029,6.25495224910391
6.15516887500417,5.44213224649429,1.82502885639668,-0.529454815797508,5.76436085936548
6.1651408750331,3.53175538390875,1.10551084399223,-0.491950884237886,3.73329157586911
6.17511387495324,1.75222663611174,0.154460048675537,1.83609003424644,2.54271168337966
6.18508587498218,0.990623215958476,-1.25399386882782,2.92630807042122,3.33423363039635
6.19505887501873,1.41095301747322,-2.27179472386837,3.31493858098984,4.25918507236395
6.20503187493887,1.86469154343009,-2.69735098600388,3.13500806093216,4.53663448339685
6.21500387496781,1.98004643708467,-3.23376168608666,2.66038021087647,4.63199971954196
6.22497687500436,1.83791685059667,-3.99326939105988,1.91041852399707,4.79310314056708
6.2349498749245,1.04304825514555,-4.77228165328503,1.00992874860764,4.98824397138985
6.24492187495343,-0.360345189571381,-5.44761518061161,0.387045184224844,5.47322243164929
6.25489487498999,-1.87770145207644,-6.37274117588997,-0.00780603289604187,6.64361752151364
6.26486787502654,-4.1772438454628,-7.88500422120094,1.15753235220909,8.99791858482973
6.27483987493906,-6.92546560764313,-8.33588711321354,7.00890420556068,12.9063482832912
6.28481287497561,-9.94559225320816,-6.31474322855473,13.8554522824287,18.1869278675732
6.29478487500455,-10.0280672299862,-4.4542568564415,12.0536959290504,16.300126443138
6.30475787492469,-8.65524215161801,-3.4550869846344,9.64970910787583,13.4152051285531
6.31473087496124,-7.0460246694088,-2.1038281917572,7.27105827212334,10.3412206774134
6.32470287499018,-5.05371808290482,-0.397450450658798,5.10078115224838,7.19138385050752
6.33467587502673,-3.91063566237688,1.25147254943848,3.55802721619606,5.43312180031368
6.34464887494687,-3.34172350645065,2.98441360652447,2.72455691099167,5.24376305048252
6.35462087497581,-2.93784813523293,5.08070122897625,3.55022790759802,6.85919782771281
6.36459387501236,-1.70901103466749,7.08962852597237,5.34973103642464,9.04451068411008
6.3745668749325,-0.0217136353254318,7.80551658689976,4.36182962626219,8.9415948442582
6.38453887496144,0.533746416270733,7.16672347962856,0.956651550829411,7.24996502474636
6.39451187499799,0.615741921365261,7.10104813814163,-1.08919828176498,7.21043519289447
6.40448387502693,0.638628215789795,8.00653976798058,-1.54632336884737,8.17946459221512
6.41445687494706,0.481565863788128,9.26504651784897,-0.986520297825337,9.32985610591571
6.42442987498362,0.0434366261959076,10.2636164653301,-0.739549111425877,10.2903179045208
6.43440187501255,-0.600160553455353,10.4190529990196,-0.789008954465389,10.466106879663
6.44437487493269,-0.995169206857681,10.295276799202,-0.504350709021092,10.3555519292867
6.45434787496924,-1.29844001680613,10.3601832318306,-0.143565516471863,10.4422197894828
6.46431987499818,-1.40273153990507,10.2681270074844,0.164540648460388,10.3648039846334
6.47429287491832,-0.680218876004219,9.16019366204739,0.439114493429661,9.19590491380949
6.48426587495487,0.47666911303997,6.17130050361157,0.0507427221536636,6.18988999684601
6.49423787498381,0.134124894440174,1.63556795954704,-0.603466569185257,1.74849762302661
6.50421087502036,-0.75451476752758,-4.75997852683067,-1.24221523761749,4.97692543714243
6.51418287493289,-0.248308152258396,-13.1956781959534,-1.73123279303312,13.3110761012516
6.52415587496944,1.71426212668419,-20.3785943698883,-1.87145487159491,20.5360207067446
6.53412887500599,4.33091452002525,-26.3092170453072,-2.06934219092131,26.7434833037877
6.54410087491851,6.89714929640293,-30.2527593755722,-3.05558854669333,31.1791074217949
6.55407387495507,7.99962251186371,-30.8600815987587,-3.56179750084877,32.0784195067559
6.56404687499162,6.09964930772781,-27.1356648445129,-3.04165083110333,27.9785930312686
6.57401887502056,3.67804248690605,-21.7015643334389,-2.04520283818245,22.1058532000731
6.58399187494069,3.31202812939882,-17.0165096890926,-1.03370265036821,17.3666252766129
6.59396487497725,3.16821586042643,-14.7708432483673,-0.240286649465561,15.1087107219646
6.60393687500618,2.46309924781322,-14.3382896232605,0.445368529111147,14.5551283179435
6.61390987492632,1.63184971511364,-15.4678219985962,1.06724081754684,15.5902358492619
6.62388187495526,1.39953018933535,-17.5066268134117,1.57860102251172,17.6332824035459
6.63385487499181,1.71543595522642,-19.5921345090866,1.99601971462369,19.7681195322113
6.64382787502836,2.28880895197392,-21.5003101873398,2.23166031271219,21.7366578001724
6.65379987494089,3.04531352698803,-23.268522233963,2.05626226186752,23.5568732203505
6.66377287497744,3.83132870703936,-24.4656343889236,1.52708456754684,24.810851113783
6.67374587501399,4.69727474033833,-24.6888249492645,0.903081553727388,25.1479228496973
6.68371787492652,5.56818652153015,-23.4022971725464,0.060385365486145,24.0556824988003
6.69369087496307,6.13501736104488,-20.1578035068512,-0.791528227329254,21.0855874278096
6.70366287499201,6.05093206107617,-15.5412571799755,-1.53067124962807,16.7477582982421
6.71363587502856,5.82097685694695,-10.8046932435036,-2.47512989401817,12.5200413596596
6.7236088749487,6.14289882302284,-5.99942452311516,-3.78203053951263,9.38253993118373
6.73358087497763,6.4941825824976,-1.23774738013744,-5.16285987138748,8.38817906600923
6.74355387501419,4.57104417175055,2.39881320476532,-6.42005567550659,8.23807407638797
6.75352687493432,2.91717004179955,5.383192897439,-9.54599002718926,11.3408364957355
6.76349887496326,3.61938702017069,7.26790311455727,-12.5546467745304,14.9513054185111
6.77347187499981,5.62844324827194,9.77274154186249,-18.7654399573803,21.8935512751383
6.78344487491995,8.24809643268585,12.5198242664337,-23.5157892894745,27.8885180734336
6.79341687494889,10.498268737793,13.9852768421173,-23.0515811777115,28.9340112952595
6.80338987498544,11.1233688354492,14.4294021070004,-18.1963292884827,25.7496287155726
6.81336187501438,8.3425874376297,13.8308787739277,-11.10343567729,19.6004657254183
6.82333487493452,4.77184223502874,13.5582523441315,-5.17203883051872,15.2756888750571
6.83330787497107,1.84450885534287,13.6334615707397,-0.940549122914672,13.7897831734546
6.84327987500001,0.080403892993927,13.1485437905788,1.35429466724396,13.2183502240069
6.85325287492015,-0.72344412535429,12.286418620348,1.92813807249069,12.4578156329082
6.8632258749567,-1.40281661689281,11.6723147964478,1.93920948296785,11.9151735441342
6.87319787498564,-2.16778182059526,10.799445952177,1.93144876599312,11.1829247172353
6.88317087502219,-2.65558549404144,9.69963380455971,2.19033540844917,10.2923563609228
6.89314387494233,-3.55026445269585,9.65008917689324,6.04361310124397,11.9270221817349
6.90311587497126,-14.2961627733707,13.8558884847164,41.8405468225479,46.335701938715
6.91308887500782,-11.38299690485,16.3338262116909,24.739705080986,31.7556216242685
6.92306187492795,-5.01195376038551,12.9647470915318,7.09589791059494,15.6062844649586
6.93303387495689,-4.6204461273551,11.6170819973946,5.26051188111305,13.5638527639204
6.94300687499344,-4.46604308903217,10.7245209002495,2.42408370137215,11.8674795640961
6.95297887502238,-4.6116264796257,9.90342564225197,0.841993060559034,10.9569106299736
6.96295187494252,-4.59204386204481,9.46357293784618,0.0756197011470795,10.5191158335708
6.97292487497907,-4.45481818914413,8.85031462132931,-0.758470555096865,9.9372406420391
6.98289687500801,-4.48403526395559,8.21070114970207,-2.01517738580704,9.56990728870371
6.99286987492815,-4.72618892937899,7.65477536737919,-3.2578978228569,9.56798546954349
7.0028428749647,-4.836135879457,7.41535293638706,-3.30612916588783,9.45019362115347
7.01281487499364,-5.0253970938921,7.71258328020573,-3.36896451473236,9.80247309136495
7.02278787503019,-4.89044072538614,8.52903409481049,-3.43553155660629,10.414591214032
7.03276079159696,-4.79023991435766,9.01630420982838,-3.64540800690651,10.8410857195252
7.0427327916259,-4.70985560953617,9.31895901560784,-3.69699916005135,11.0767115962581
7.05270579166245,-4.72970193654299,9.57638268470764,-2.64209479808807,11.0026292609808
7.06267779169139,-4.72984957873821,9.79916569411755,-1.65419017195702,11.0059743077685
7.07265079161152,-4.57668527305126,9.96186271548271,-0.921222978830338,11.0015184691666
7.08262379164808,-4.28542142808437,10.0523834609985,-0.354338929653168,10.9334718246452
7.09259579167701,-3.87870781838894,10.1025268435478,0.135636728592217,10.8223759076821
7.10256879159715,-3.4035238981247,10.1151919126511,0.631283016577363,10.6910991297381
7.1125417916337,-2.94729518920183,10.1497629904747,1.07254782356322,10.6233044072422
7.12251379166264,-2.55411817610264,10.1823670649529,1.51852921396494,10.6070754535168
7.13248679169919,-2.16888372838497,10.2095121788979,2.03607401892543,10.6340863720801
7.14245979161933,-1.57036331892014,10.3521900880337,3.28846706628799,10.9748756812209
7.15243179164827,0.0409623768925667,10.4623972392082,6.84053480029106,12.5002540078714
7.16240479168482,0.967180339694023,9.72803840875626,8.18224859833717,12.748308170762
7.17237679159734,-0.248354345262051,8.78165836930275,5.85402064204216,10.5569295381475
7.1823497916339,-1.49059984222054,8.64851376056671,3.75758917808533,9.546630535828
7.19232279167045,-2.0026266297698,8.98424451112747,2.36879827737808,9.50464981642652
7.20229479169939,-2.13572270661593,9.21363779783249,1.64474589541554,9.599876145539
7.21226779161952,-2.2023210310936,9.27335424184799,1.38202684164047,9.63095607973643
7.22224079165608,-2.24351203411818,9.30778498649597,1.26625182554126,9.65772236543169
7.23221279168502,-2.29709065586329,9.33903659999371,1.14640173867345,9.68547712008603
7.24218579160515,-2.37590556800365,9.33305431365967,1.03287556171417,9.68595178677751
7.25215879164171,-2.54749737381935,9.31139447271824,0.888476232290268,9.69439012581653
7.26213079167064,-2.68230142235756,9.31017240464687,0.680278883054853,9.71271488737109
7.27210379159078,-2.70233602970839,9.32662471532822,0.33032324552536,9.71584592532043
7.28207579161972,-2.54796836704016,9.32433728456497,-0.12930649638176,9.66706412339198
7.29204879165627,-2.31109152138233,9.1832755458355,-0.719434470310807,9.49690895649826
7.30202179169282,-2.13680794984102,8.95550252258778,-1.28034142255783,9.29549610321564
7.31199379160535,-1.98732680529356,8.45405115544796,-1.6542964451015,8.84065300180053
7.3219667916419,-1.75094200283289,7.41064241945744,-2.12600551128387,7.90590402170149
7.33193979167845,-0.345467241704464,0.15252228140831,-3.6445905661583,3.66410303571651
7.34191179159097,2.60713721930981,-13.9459356057644,-7.47792106747627,16.0376303702212
7.35188479162753,14.9179229414463,-30.8323962020874,-13.2328723347187,36.7190684886802
7.36185779166408,30.3357173323631,-55.8290793943405,-19.6223412251473,66.4994596011481
7.37182979169302,38.8525588130951,-68.5087571811676,-16.9375021111965,80.5596059734653
7.38180279161315,37.8716954040527,-67.1008973407745,-10.9493159365654,77.8246956704184
7.39177479164209,28.1558753371239,-58.9781371450424,-4.72865382313728,65.5250650062872
7.40174779167865,16.4036910831928,-45.4767945814133,0.259957852363586,48.3455013898696
7.41172079159878,11.4874118041992,-26.3897191715241,1.96866746306419,28.848805165748
7.42169279162772,11.0767712044716,-12.9348058390617,2.52454120516777,17.2156141542214
7.43166579166427,8.32462537586689,-6.44641083061695,2.93705525279045,10.9307773650169
7.44163879158441,4.60272935628891,-2.38751755356789,2.91257296085358,5.94713702954068
7.45161079161335,0.523500047922134,2.17987123131752,1.7333464153111,2.83379263192847
7.4615837916499,-2.96685090959072,5.70757186353207,2.39301773697138,6.8633166025313
7.47155679168645,-2.82194930434227,2.97052354574204,5.45044815659523,6.81870905082612
7.48152879159898,-0.559406922161579,-1.60647046029568,8.23523723602295,8.40909125755832
7.49150179163553,1.31753643840551,-4.66167455255985,17.2029013824463,17.8719592623384
7.50147379166447,5.53074446082115,-8.98861588954926,45.7719573497772,46.9729329457996
7.5114467915846,7.81879035115242,-12.0079636859894,33.1420183181763,36.1070360545095
7.52141979162116,6.18431114315987,-9.51085293889046,10.1028472709656,15.1911010437384
7.53139179165009,5.44984589338303,-6.67911890387535,1.73545682162046,8.79336454228061
7.54136479168665,5.72111810803413,-3.92662867426872,-2.21870756059885,7.28507161194205
7.55133779160678,5.13272215247154,-2.0076151818037,-2.94596670180559,6.24932598132216
7.56130979163572,4.03246503174305,-0.910715532302857,-2.91983169436455,5.06118505257651
7.57128279167227,2.92523422926664,-0.0863639599084854,-2.96888047814369,4.16877743746857
7.58125579159241,1.99607716351748,0.538479444980621,-3.48206837654114,4.04957829091999
7.59122779162135,1.17588763922453,0.907615338563919,-3.83210141658783,4.10992440440113
7.6012007916579,0.721128627955914,1.02829309880733,-3.51338313996792,3.73112238921792
7.61117279168684,0.509535435140133,1.00335355460644,-4.02575125873089,4.18007391231042
7.62114579160698,0.570661642849445,1.328131300807,-3.92873133301735,4.18622949082288
7.63111879164353,0.340316137075424,1.88202751457691,-3.78258427083492,4.23860665841338
7.64109079167247,0.189199233949184,2.38190130293369,-4.07665887236595,4.72529340133332
7.65106379159261,-0.294254988133907,2.58050490617752,-4.75024057388306,5.41390589857386
7.66103679162916,-1.48085326462984,2.65987793505192,-5.2809028762579,6.09555675957577
7.6710087916581,-1.73717297941446,2.84582991778851,-5.86867259502411,6.74965450293383
7.68098179169465,-0.913625399172306,2.92520762443543,-7.02328952550888,7.6627767013786
7.69095479161479,-2.01344573289156,3.95867083132267,-5.45778231918812,7.03650668398081
7.70092679164372,-3.20591899931431,5.22195241749287,-3.29856345355511,6.9589672033897
7.71089979168028,-3.66790283024311,6.42634201705456,-1.86758430719376,7.63146473730585
7.7208717915928,-3.95654712259769,7.1898755300045,-0.948980880975723,8.26130377015342
7.73084479162935,-3.86744111090899,7.6816292899847,-0.298906228914857,8.60545607325864
7.7408177916659,-3.62577568799257,8.03068876862526,0.164397976398468,8.81278832905941
7.75078979169484,-3.36847071737051,8.19060953199864,0.493733042478561,8.86997473483914
7.76076279161498,-2.98473724991083,8.22393632233143,0.562302280627191,8.76686768119412
7.77073579165153,-2.54131745159626,8.15002634704113,0.423492779731751,8.54754760043705
7.78070779168047,-1.983900629282,7.88120470046997,0.0873819601535797,8.12753867074994
7.79068079160061,-1.35253260880709,7.43202276349068,-0.325427956581116,7.5610984764024
7.80065379163716,-0.673118163496256,6.62588292896748,-0.743644208908081,6.70137443811743
7.8106257916661,0.0012439951300621,5.48261836767197,-1.21104957818985,5.61477931836076
7.82059879158624,0.755158253610134,4.0767471653223,-1.75802619695663,4.50341953932173
7.83057079161517,1.78385758772492,2.1054233121872,-2.61188223481178,3.79958998120988
7.84054379165173,3.24705065310001,-0.649087715148926,-3.94219337761402,5.14835327383993
7.85051679168828,4.97491866588593,-3.99845821022987,-5.42215523421764,8.37479857519503
7.8604887916008,6.80308981597424,-7.53927297770977,-6.72236432611942,12.1783763371691
7.87046179163735,8.08262432277203,-10.2356796383858,-6.67109418511391,14.6492815943101
7.88043479167391,7.6066510283947,-11.3255994665623,-5.2016526389122,14.6009428914942
7.89040679158643,5.18613646745682,-11.0165472221375,-4.19504510879517,12.8786151282464
7.90037979162298,3.19708210229874,-9.03729162096977,-3.52786669313908,10.2146863493623
7.91035279165953,2.56133510202169,-5.98043744444847,-2.70461322784424,7.04563710703581
7.92032479168847,2.5228615924716,-3.30895921826363,-1.4349287943542,4.40148410968016
7.93029779160861,2.22131015628576,-1.18914883196354,-0.447437200918794,2.55900250170737
7.94026979163755,1.49107624411583,0.492737261652947,0.113949953913689,1.57451038954487
7.9502427916741,0.339492556750774,1.81562419474125,0.383401418700814,1.8864631086986
7.96021579159424,-1.09885700494051,2.85795996665955,0.454810393676162,3.09552489612526
7.97018779162318,-1.93655396997929,3.66095750749111,0.222305255346,4.14756202808982
7.98016079165973,-1.9472073045373,4.2305248439312,-0.0545439970493317,4.65745980010312
7.99013379169628,-1.4920913207531,4.5283586204052,0.17988725066185,4.7712396426312
8.0001057916088,-1.23066055476666,4.44033697485924,0.614182176589966,4.64847691157022
8.01007879164536,-1.20424575805664,3.83397603392601,1.08110105752945,4.16153331971615
8.02005179168191,-1.17328328937292,3.00331005334854,1.47211957097054,3.54451703126119
8.03002474992536,-0.967437324821949,2.21105560183525,1.75465483859181,2.98387591137087
8.03999774996191,-0.670758373439312,1.53571271896362,2.01962243914604,2.62434851866664
8.04996974999085,-0.298543920814991,0.826461247801781,2.25420352175832,2.41942145652246
8.0599427500274,0.0709436827898026,0.116531499624252,2.38317438796163,2.38707619483935
8.06991574994754,0.435010040402412,-0.406730566620827,2.40029971316457,2.47307545418503
8.07988774997648,0.808295702934265,-0.595375192165375,2.25790130093694,2.47101838269177
8.08986075001303,1.09410818874836,-0.372637206315994,1.9572854192555,2.27308104313229
8.09983374993317,1.31541653037071,0.00608519732952118,1.48944253206253,1.98715795404289
8.10980574996211,1.35043784379959,0.715500390529633,0.602080779075623,1.64259685965439
8.11977874999866,1.40642230242491,1.24558908104897,0.640890942066908,1.98500807333623
8.1297517499188,1.41415699928999,1.07914867222309,0.991234030723572,2.0364053572573
8.13972374994773,1.07430016100407,0.524225687384605,1.25713280037046,1.73473810271594
8.14969674998429,0.3578665548563,0.0461339467763901,1.34331140354276,1.39092858875569
8.15966875001323,-0.960453410446644,-0.31668870806694,1.05678570359945,1.46272297951044
8.16964174993336,-2.48043975055218,-0.639180192947388,0.558759635388851,2.62170650632665
8.17961474996992,-3.87807339549065,-0.823679727315903,-0.0295670306682587,3.96469113088348
8.18958674999885,-5.16189098775387,-0.863495757579804,-0.608849515914917,5.26891271761478
8.19955974991899,-6.17699569165707,-0.637892636060715,-0.987362004518509,6.28785070734486
8.20953274995554,-6.93463404178619,-0.144628540277481,-1.2250571680069,7.04349570689497
8.21950474998448,-7.55223040759564,0.688801419138909,-1.26427473574877,7.68823920880929
8.22947775002103,-7.62404006302357,2.02183970332146,-0.983209311962128,7.94861769238177
8.23945074994117,-7.18776585459709,3.94110111773014,-0.642717173695564,8.22248997360586
8.24942274997011,-6.5587007600069,5.55413273870945,0.0895737889409065,8.59493860374724
8.25939575000666,-6.14312978804112,6.65109495341778,1.70898413747549,9.21388812902785
8.26936774991918,-4.32059535384178,7.92055236876011,6.97822269558907,11.4060635640498
8.27934074995574,0.14026300907135,8.81114470839501,10.4632906937599,13.6797805876452
8.28931374999229,1.8889628970623,7.75188066244125,6.67991412520409,10.4058198788615
8.29928575002123,2.16723832190037,7.03677086591721,3.83552203774452,8.3020657348252
8.30925874994136,2.45256081104279,6.62099641084671,2.27211602836847,7.41722045315338
8.31923174997792,3.62013926446438,6.73735951066017,1.31590448051691,7.76073618104908
8.32920375000686,4.97629510045052,7.05147076606751,0.592331716418266,8.65087335208113
8.33917674992699,6.0126263666153,7.23240057528019,0.23741011172533,9.40827600928991
8.34914974996354,6.61421305596829,6.41456163167954,-0.0708457419276238,9.21408890751038
8.35912174999248,4.52788558065891,3.62483691751957,0.115627812445164,5.80125506258452
8.36909475002904,1.25300685882568,0.768649241924286,0.324956670999527,1.50547158173181
8.37906774994917,0.0217194825410843,-1.71822069168091,-0.19862275287509,1.72979914417887
8.38903974997811,-0.000609864592552185,-4.93846829295158,-1.65726683065295,5.20912687505358
8.39901275001466,0.825826824903488,-9.11470992565155,-4.27000407457352,10.0991515371528
8.40898474992719,2.81571324884892,-13.8331346297264,-7.62615733981133,16.0450032893558
8.41895774996374,5.38985813856125,-17.6984704506397,-10.187189848423,21.1202571966772
8.42893075000029,7.91329831302166,-19.72031717062,-10.3711713194847,23.6447117563066
8.43890275002923,8.5415465515852,-20.2173889732361,-8.1379465842247,23.4078407589363
8.44887574994937,6.50430235862732,-19.2816613912582,-4.50992673486471,20.8429329590015
8.45884874998592,4.61052194058895,-18.3004120659828,-1.59884481400251,18.9398600599024
8.46882075001486,4.62569604992867,-17.3979083633423,0.0835488179326058,18.0025348151464
8.47879374993499,6.3501229763031,-16.4765953373909,0.924613194465637,17.682114276457
8.48876674997155,8.42800297915936,-15.7113749027252,1.11257808119059,17.8638284121139
8.49873875000048,9.86669460296631,-15.2615088415146,1.07853544548154,18.2051792964253
8.50871174992062,10.3209811592102,-15.4134709596634,1.13228290557861,18.5843967804022
8.51868374994956,10.054986641407,-16.1355015206337,1.32527625158429,19.0581615803902
8.52865674998611,9.62249148845673,-16.9902755713463,1.60185554534197,19.5915223406414
8.53862975002267,9.66198943018913,-17.8437234735489,1.89194497704506,20.3796948688083
8.54860174993519,10.039168753624,-18.6052215707302,2.26808349609375,21.2622525077885
8.55857474997174,10.8183090698719,-18.9099983310699,2.59776120901108,21.9401962459633
8.56854775000829,11.8616453003883,-18.6133059310913,2.87575421333313,22.2581164794357
8.57851974992082,12.3305709457397,-17.3641044402123,2.87524199724197,21.4900469846211
8.58849274995737,10.8357618391514,-14.2024377536774,2.38960851788521,18.0231296297463
8.59846474998631,8.24266203045845,-10.0551363301277,1.59394163131714,13.0991562281645
8.60843775002286,6.11455795347691,-6.21917925953865,0.830694047212601,8.76105371680701
8.618410749943,4.60248991280794,-3.04250744819641,0.166422867178917,5.51973382877739
8.62838274997193,3.40054181814194,-0.298565847873688,-0.473871805071831,3.44635760043711
8.63835575000849,2.18491971731186,2.13397409677506,-1.11846008777618,3.25248713829177
8.64832874992862,0.992678585350514,4.18313316106796,-1.76910667061806,4.6490592843139
8.65830074995756,-0.340518304556608,5.7931476187706,-2.8728861540556,6.4753368177084
8.66827374999411,-1.44947418183088,7.05315885722637,-4.75646259605885,8.62971388267143
8.67824675003067,-0.984025875627995,7.97771767258644,-6.77796023726463,10.5144201535484
8.68821874994319,-0.0397228402644396,9.00912850677967,-9.89120145320892,13.3791569444293
8.69819174997974,1.20449952721596,10.1244585800171,-13.7653700780869,17.1301165797619
8.70816375000868,1.63629418373108,11.1487469208241,-13.5627815973759,17.6329538426894
8.71813674992882,1.45841574400663,12.1854453921318,-10.3961728441715,16.0839194754538
8.72810974996537,2.37150641530752,12.9625754356384,-8.28621677041054,15.5664316067843
8.73808174999431,3.37292483389378,13.4876062846184,-5.60866854965687,14.9916412751868
8.74805475003086,3.61913412809372,13.7863732767105,-4.42808471918106,14.9254867338447
8.758027749951,3.04130584537983,13.8837925672531,-4.05222452759743,14.7793694357275
8.76799974997994,0.731757404208183,13.4385001981258,-2.04071334600449,13.6122469649284
8.77797275001649,-0.701688974797726,12.76838940382,-0.534096372127533,12.7988044097742
8.78794574993663,-1.23285457625985,12.3916509604454,0.599044831618667,12.4672289881112
8.79791774996556,-1.439663284868,12.1766956186295,1.05073171578348,12.30644480348
8.80789075000212,-1.37881672024727,11.856300945282,1.20477683141828,11.9968535402684
8.81786374992225,-1.66152696579695,11.52643846035,1.34226811408997,11.7226762784106
8.82783574995119,-1.98110536783934,11.103229855299,1.43711682245135,11.369775567682
8.83780874998774,-2.30483763188124,10.7518250584602,1.57716830849648,11.108621807875
8.84778075001668,-2.62606290221214,10.423169438839,1.76529077768326,10.892883871909
8.85775374993682,-2.92202410787344,10.1456091284752,2.1125535531342,10.7672880517637
8.86772674997337,-4.69536650151014,10.5598750019073,7.77428134560585,13.92827617044
8.87769875000231,-7.67801395654678,10.664912045002,14.4797396171093,19.5539025931869
8.88767174992245,-7.16152998268604,8.84029249370098,8.92289084672928,14.458778099471
8.897644749959,-7.01191669106484,7.84957828044891,7.53392920732498,12.9438380770277
8.90761674998794,-6.6133815819025,7.47368768334389,5.21694661617279,11.2609660123814
8.91758975002449,-6.64991264641285,7.60387184679508,2.70937520027161,10.4585333218024
8.92756274994463,-7.22385253071785,7.66806491911411,1.00691143915057,10.5828699148955
8.93753474997357,-7.45121390998364,7.5904536563158,0.166591705530882,10.6378253528324
8.94750775001012,-7.12269569993019,7.64947837471962,0.0856383204460144,10.4524947912465
8.95748074993026,-6.82596003055573,7.9701858741045,0.319863599985838,10.4985668512
8.96745274995919,-6.60143630504608,8.50880272865295,0.418184531182051,10.7774562614205
8.97742574999575,-6.40945291936398,9.00695743560791,0.640185767859221,11.073220253827
8.98739775002468,-6.08557330548763,9.3893027740717,1.11115019112825,11.2440145760711
8.99737074994482,-5.36636461079121,9.74610981345177,1.82829218745232,11.2750688669521
9.00734374998137,-4.22172946214676,10.2708576571941,3.44219270467758,11.6259282331364
9.01731575001031,-3.05995027720928,10.8239633274078,4.9872399187088,12.3042285340783
9.02728829160333,-2.58817119061947,10.9735690176487,4.44292261362076,12.1184738497748
9.03726129163988,-2.53278957992792,11.0367224550247,3.58724838405848,11.8782413081385
9.04723329166882,-2.49880117714405,11.1344773757458,2.82915073513985,11.756899575825
9.05720629158896,-2.50292931139469,11.2153665876389,1.92162778258324,11.6508264156566
9.06717929162551,-2.4337301453948,11.4286613202095,1.02192964710295,11.7295218230022
9.07715129165445,-2.29341012597084,11.7106982588768,0.22694235317409,11.9353125869426
9.087124291691,-2.07673248678446,12.0360560488701,-0.334486316889524,12.2184837082755
9.09709629160352,-1.90704541146755,12.2878383243084,-0.62387086674571,12.4505826266932
9.10706929164007,-1.95678533613682,12.2130968749523,-0.856490939408541,12.3984805866678
9.11704229167663,-2.24420259028673,11.7734552550316,-1.25477023288608,12.0509394756516
9.12701429158915,-2.4398577350378,11.3626614582539,-1.69741498276591,11.7449648277817
9.1369872916257,-2.59426281988621,10.8061550474167,-2.06447160646319,11.3033282488542
9.14696029166225,-2.79173966467381,9.98857630491257,-2.17097176909447,10.596158991662
9.15693229169119,-3.3296340957284,9.01032777070999,-2.34620229721069,9.88823214566191
9.16690529161133,-3.89295397460461,8.47524672746658,-2.57137857198715,9.67454833572594
9.17687829164788,-3.6299175632,7.95516086876392,-2.19507296875119,9.01549950372595
9.18685029167682,-3.95945932835341,7.27501917600632,-1.13461009740829,8.36005755107495
9.19682329159696,-4.29279184341431,7.03584583640099,-0.422938463687897,8.2528822473456
9.20679629163351,-4.16868322938681,6.93667238116264,-0.307167102098465,8.09874652147893
9.21676829166245,-3.92712919592857,6.48811668097973,-1.00495379135013,7.6503551492902
9.226741291699,-2.83583468735218,3.80174033403397,-5.0805287361145,6.95032086884453
9.23671329161152,0.219177908599377,-1.72962685525417,-9.3804880964756,9.54113226730218
9.24668629164808,10.3307015705109,-12.525839881897,-12.1191204249859,20.2606302853881
9.25665929168463,30.1595266914368,-33.05232670784,-17.4138689231873,48.0134999966387
9.26663129159715,49.7295680809021,-53.8471071767807,-26.943490254879,78.0928457666613
9.2766042916337,61.9672197532654,-66.6308279800415,-28.0716356706619,95.2240531088745
9.28657729167026,57.4451702785492,-55.5066311788559,-17.5211489582062,81.7797307037184
9.29654929169919,38.5492005872726,-34.9505317139626,-5.50969214558601,52.3253021065872
9.30652229161933,28.2267038297653,-13.45294749856,-1.59029062986374,31.3090662553154
9.31649429164827,11.8249224472046,-2.31610901713371,22.0155294084549,25.0973442219728
9.32646729168482,-7.36811971306801,2.08135324895382,43.8387789773941,44.502356810419
9.33644029160496,2.06111603558064,1.71714889705181,27.3945795536041,27.5256205845667
9.3464122916339,4.19308629155159,1.14162675619125,27.8686998653412,28.2054908924365
9.35638529167045,3.22402022480965,3.23649175107479,29.4642576670647,29.8162986491606
9.36635829159059,1.6479871532321,0.050900012254715,18.5625029826164,18.6355834211894
9.37633029161952,-0.148374266624451,-4.48142418980599,5.97470951199532,7.47009581228393
9.38630329165608,-0.679019612073898,-5.86566712617874,0.425279688835144,5.92013355275459
9.39627629169263,0.227818631529808,-4.88827053129673,-1.00365000844002,4.9954382646028
9.40624829160515,-0.173612603545189,-3.84913552522659,-1.51592398703098,4.14053271477561
9.41622129164171,0.285459898710251,-3.05400190472603,-3.19504756361246,4.42907935372441
9.42619429167826,1.96247877001762,-3.15160713672638,-4.79398827195168,6.06351993636079
9.43616629159078,4.20054909288883,-4.44121347248554,-6.39842799425125,8.849229943197
9.44613929162733,8.35545832872391,-5.35539055645466,-8.62583942770958,13.1491063471186
9.45611129165627,12.8741316211224,-5.82574233770371,-11.0274511098862,17.9244865132652
9.46608429169282,15.7053429150581,-5.57857877790928,-13.4689793944359,21.4287597211935
9.47605729161296,14.7351939439774,-3.94334761798382,-14.9109460437298,21.331015984287
9.4860292916419,10.5161998093128,-2.26539319217205,-14.342434129715,17.9284098990887
9.49600229167845,6.05127353847027,-1.36201299190521,-11.6772206103802,13.2223474470684
9.50597529159859,2.45870155692101,-1.05601123988628,-6.6618859899044,7.17921291140307
9.51594729162753,0.356782481074333,-0.488302148580551,-2.80824138432741,2.87262117233705
9.52592029166408,-0.925138859152794,0.46114884853363,-1.01610720902681,1.44948750579461
9.53589329158422,-1.75849689781666,1.34466605722904,-0.0842235866189003,2.21529495951164
9.54586529161315,-2.49856670379639,2.0027731025219,0.537262493222952,3.24693496395128
9.55583829164971,-2.95244863271713,2.56825265049934,0.913291961699724,4.01833010253457
9.56581029167865,-3.42240104913712,2.9992930161953,1.14668474391103,4.69291736982988
9.57578329159878,-3.93927503228188,3.42720278263092,1.35524410888553,5.3944687679049
9.58575629163533,-4.40602142035961,3.90922092854977,1.2341997282207,6.01816267593518
9.59572829166427,-4.94985749959946,4.45278569698334,0.659598670005798,6.69055006222013
9.60570129158441,-5.63102713286877,5.0463827508688,1.44137052565813,7.69753171033458
9.61567429162096,-5.64512476980686,5.18951089560986,2.32659088209271,8.01320673232492
9.6256462916499,-5.4083511275053,5.0310636305809,3.17674343973398,8.04074387449536
9.63561929168645,-5.23154185116291,5.02457965314388,7.34252294182778,10.3212438195464
9.64559229160659,-5.29048821687698,5.12113647937775,14.2977520465851,16.0823200440408
9.65556429163553,-4.1411899137497,5.16226462483406,7.96894334077835,10.3586914196288
9.66553729167208,-3.40623992979527,5.05457879304886,4.70594382226467,7.70046391412764
9.67551029159222,-3.03832435011864,5.02689982831478,2.62854036748409,6.43508828252794
9.68548229162116,-2.54770962774754,4.99807247042656,1.75257074475288,5.87733417310238
9.69545529165771,-2.03901589930058,4.94646260619164,1.33612371370196,5.51455390130239
9.70542729168665,-1.69617142617702,4.80762631773949,1.0508592581749,5.20524480677832
9.71540029160678,-1.40224943697453,4.6246944218874,0.730704466849566,4.88753833715969
9.72537329164334,-1.13433352410793,4.43742973923683,0.454210542440415,4.60258649581326
9.73534529167227,-0.895551947951317,4.24252157628536,0.20296979226172,4.340760227575
9.74531829159241,-0.654544336795807,4.00524565815926,0.00347792387008667,4.05837814489846
9.75529129162896,-0.389862518906593,3.78026409566402,-0.188827606849372,3.80500266514009
9.7652632916579,-0.178854632377625,3.49137071192265,-0.385941997356713,3.51718774774931
9.77523629169446,-0.00164131343364716,3.1296368086338,-0.616863709688187,3.1898511069007
9.78520829160698,0.190878846645355,2.70378409266472,-0.872329730987549,2.84742731485955
9.79518129164353,0.438431831002235,2.13171005487442,-1.10551903009415,2.44102080171165
9.80515429168008,0.811440335512161,1.40286164045334,-1.3376020359993,2.10134133520973
9.81512629159261,1.44513467073441,0.446376442909241,-1.54775681376457,2.16407423622611
9.82509929162916,2.26211407363415,-0.630591217875481,-1.80080501139164,2.95934182805039
9.83507229166571,3.16624330222607,-1.750465747118,-2.11841231703758,4.19248109425688
9.84504429169465,4.03777722716332,-2.92732256233692,-2.53241740465164,5.59338897552709
9.85501729161479,4.80652704119682,-4.14193134069443,-3.08414488613606,7.05480312322479
9.86499029165134,5.30046590566635,-5.29857667028904,-3.776186247468,8.3922247422021
9.87496229168028,5.41108177721501,-6.18782473504543,-4.47584068357945,9.35960099449401
9.88493529160041,5.08548717498779,-6.63059987783432,-4.97280606687069,9.72398245193849
9.89490829163697,4.3816794615984,-6.48922238945961,-5.19456873714924,9.39641774768584
9.9048802916659,3.71567458212376,-5.83569897651672,-4.92382744967938,8.49150733962911
9.91485329158604,2.93232544004917,-4.97859831869602,-4.11583229362965,7.09401502497472
9.92482529161498,1.94473422467709,-4.10293099701405,-2.9920044618845,5.43765801341219
9.93479829165153,0.774467806220055,-3.25443627119064,-2.0374810051918,3.91694838779246
9.94477129168809,-0.409046648740768,-2.44899927198887,-1.39035254582763,2.84569794544984
9.95474329160061,-1.53005144476891,-1.63033996403217,-0.946126343384385,2.42780165573832
9.96471629163716,-2.39269175469875,-0.870850385427475,-0.574505894780159,2.61025118521949
9.97468929167371,-2.90221695721149,-0.157852603197098,-0.240531026534736,2.91644233369835
9.98466129158624,-3.26477648735046,0.548344867229462,0.0454802463389933,3.31081803465252
9.99463429162279,-3.5321819382906,1.18381441712379,0.310913997888565,3.73823398591628
10.0046072916593,-3.62927729308605,1.67870520830154,0.556077225208283,4.03719292663654
10.0145792916883,-3.43914630532265,2.01622169852257,0.784959465265274,4.06313162586658
10.0245522916084,-2.98273194730282,2.26742334544659,0.981740491390228,3.87320447296192
10.0345258750021,-2.30306855678558,2.37545357823372,1.13508606076241,3.49790292102782
10.0444978750311,-1.66390999853611,2.39874537706375,1.27070067957044,3.1839057907347
10.0544708749512,-1.00779159128666,2.27580942213535,1.37436713531613,2.84320900392237
10.0644428749802,-0.238582186102867,1.98417135536671,1.45326273903251,2.47099777734494
10.0744158750167,0.626934369206429,1.51500597417355,1.51695967510343,2.2337091263107
10.0843888749368,1.65295231640339,0.847897725105286,1.67750272840261,2.50303761784362
10.0943608749658,2.78574860751629,0.0403118741512299,2.10059029608965,3.48919760740238
10.1043338750023,3.7696227478981,-0.720393340587616,3.31707661539316,5.07267380175603
10.1143068749225,4.1450461524725,-1.03109683871269,8.27869140386581,9.31564810721037
10.1242788749514,2.34426803827286,-0.560509414672852,9.89475422143936,10.1841015579135
10.134251874988,0.607484775781632,0.171461997628212,6.99911830544472,7.02752403219288
10.1442248750245,-0.0918872398138046,0.648940950036049,4.78570072084665,4.83037255405693
10.154196874937,-0.416522898674011,0.957464021444321,3.22500226467848,3.38981832620296
10.1641698749736,-0.74380793094635,1.28239379525185,2.10959559291601,2.57840602890425
10.1741418750025,-1.15184359610081,1.65598936021328,1.3352011692524,2.41905076288014
10.1841148749227,-1.34123198747635,1.98604655742645,1.25675316989422,2.7060511271102
10.1940878749592,-1.44576558530331,2.31444489955902,1.41062001854181,3.0719280846812
10.2040598749882,-1.40031868636608,2.63239251315594,1.22392368525267,3.22309974310879
10.2140328750247,-1.32175900518894,2.95874725341797,0.731756819486618,3.32215294956021
10.2240058749449,-1.18842670083046,3.35692217409611,0.0548308029770851,3.56150121762439
10.2339778749738,-1.03736856222153,3.83829888045788,-0.668459248244762,4.03181219753273
10.2439508750103,-0.890978255867958,4.4893804961443,-1.32664347678423,4.7653292022781
10.2539238749305,-0.888074528574944,5.26493179142475,-1.71708048462868,5.60861377947807
10.2638958749594,-1.21329783260822,5.95002666056156,-1.69298980996013,6.30405610608234
10.273868874996,-1.75999203085899,6.57362870156765,-1.44627356216311,6.95714549735545
10.2838408750249,-2.25664985060692,7.19800608336926,-1.30588191434741,7.65565723492665
10.293813874945,-2.72254312992096,7.65492213249207,-1.54906644389033,8.27101449620201
10.3037868749816,-3.03719525277615,7.89238750040531,-2.32779891684651,8.77114492283144
10.3137588750105,-3.06279436290264,7.78001337110996,-3.63632377266884,9.11768435205752
10.3237318749307,-2.6214535421133,6.88877959191799,-4.93743450522423,8.87161554807596
10.3337048749672,-1.87034945547581,5.16763412296772,-5.62284161567688,7.86250579328542
10.3436768749962,-1.38334948182106,2.83527101576328,-5.43986235737801,6.28844336771034
10.3536498750327,-1.2039604139328,0.357853690981865,-4.55798500031233,4.72787554886323
10.3636228749529,-0.802853699326515,-1.55793740093708,-3.5402528500557,3.95033330873337
10.3735948749818,-0.128327672481537,-2.6491792845726,-2.62534252524376,3.73189526222085
10.3835678750183,0.578691331744194,-3.0958188521862,-1.84525335207582,3.65019697500483
10.3935408749385,1.00762319147587,-2.82762578129768,-1.06520891010761,3.18519105819918
10.4035128749674,1.02357673466206,-1.9214500272274,-0.212167974114418,2.18739452045429
10.413485875004,0.865457498431206,-1.17179955840111,0.547982339859009,1.55641110618538
10.4234578750329,1.07392009198666,-1.22687740623951,1.14725879430771,1.9936738135989
10.433430874953,1.73411166965961,-2.13675561726093,1.5989728680253,3.18270043884543
10.4434038749896,2.76859112262726,-3.67289576768875,1.76346878528595,4.92596003650804
10.4533758750185,4.62827116370201,-5.75390987813473,1.67742671459913,7.57245886309743
10.4633488749387,7.29480147600174,-8.02103793919087,1.43633314937353,10.9368291159826
10.4733218749752,10.0303967607021,-10.3507645368576,1.13389030516148,14.4579698747339
10.4832938750042,11.986595621109,-12.4255250501633,0.967183555662632,17.2918359750077
10.4932668749243,12.8923456978798,-13.9577575063705,0.924927482306957,19.0233294417095
10.5032398749609,13.1700825941563,-14.9062086296082,0.851037387549877,19.9090531136292
10.5132118749898,13.0943997430801,-15.1693871283531,0.50923868894577,20.0457709885088
10.5231848750263,13.7369034934044,-14.2194321012497,-0.317502932846546,19.773608041567
10.5331568749389,15.1123393535614,-13.1806251239777,-1.19978696376085,20.0885830300308
10.5431298749754,16.21281691432,-13.0021166467667,-1.58565232604742,20.8428587984587
10.553102875012,16.517596013546,-13.423338367939,-1.47159215211868,21.3350081900399
10.5630748749245,16.5696596217155,-13.8636570954323,-1.37202313274145,21.648026596344
10.573047874961,16.3505398929119,-14.0184960436821,-1.31121969133616,21.5772492036261
10.5830208749976,15.8692532336712,-14.076082931757,-1.33409224480391,21.2543903938393
10.5929928750265,15.1729387271404,-14.0671893167496,-1.37538323521614,20.7363343900156
10.6029658749467,14.3219279444218,-13.8927703821659,-1.5234090077877,20.0111834717941
10.6129388749832,13.2629843258858,-13.4963490414619,-1.70498961210251,18.9990836688257
10.6229108750122,11.9315663051605,-12.4406237304211,-1.76455168962479,17.3275802108002
10.6328838749323,10.0370099616051,-10.6080268228054,-2.07420736670494,14.7503945114296
10.6428558749612,7.78695869386196,-8.2265564596653,-2.48651559233665,11.5972288360154
10.6528288749978,5.50352567195892,-5.65398271679878,-3.10338631868362,8.47863916125477
10.6628018749179,3.12087826430798,-3.02207026004791,-4.16456766664982,6.01800744826734
10.6727738749469,1.25781443953514,0.0492136752605438,-5.81537639379501,5.95005224780792
10.6827468749834,-1.53793466091156,3.47182990193367,-7.3961079955101,8.31391961534644
10.69271987502,-5.69789998412132,4.45727343499661,-6.69543614387512,9.85708962422913
10.7026918749325,-8.31079320251942,4.29512488245964,-7.04713213205338,11.7123632413611
10.7126648749691,-8.72814932942391,4.17406179070473,-8.96330095410347,13.1887886685312
10.7226378750056,-7.89641915559769,5.11767375826836,-11.1929869544506,14.622823842865
10.7326098749181,-9.07635336041451,6.5227830684185,-12.1538517165184,16.5119048213061
10.7425828749547,-10.6431042695045,7.7088773149252,-9.28158536732197,16.0888248445621
10.7525558749912,-9.99248107552528,8.47409073293209,-5.85931295692921,14.3524018938272
10.7625278750202,-8.33923055112362,9.1361575126648,-3.92793611168861,12.9784753487658
10.7725008749403,-5.96315307497978,9.6180400031805,-2.91434817552567,11.6858595484719
10.7824728749692,-3.68952174067497,10.1840569102764,-2.33797468006611,11.081232396773
10.7924458750058,-2.8262475925684,10.4265631628037,-0.93346354007721,10.8430737811326
10.8024188749259,-2.36008709549904,10.2397528088093,0.367550055608153,10.514639400723
10.8123908749549,-2.11943017110229,10.0710267233849,1.20395675942302,10.3618085000578
10.8223638749914,-1.39734523102641,10.0875111937523,1.75761236026883,10.3343919505562
10.832336875028,-0.61105033479631,10.1592810881138,2.16715222164989,10.4058120053537
10.8423088749405,-0.15384875882417,10.0121733283997,2.36642679288983,10.2891816955779
10.8522818749771,0.156365692801774,10.0291887259483,2.58381618440151,10.3578560911682
10.8622548750136,0.478703944087029,9.84773792982102,3.00502445697784,10.3071466365602
10.8722268749261,0.773322555944324,9.70111198067665,3.55374208420515,10.3604384192085
10.8821998749627,2.2042675691843,10.2885992789269,7.84480929136276,13.124599173184
10.8921728749992,4.84434887856245,11.5643915677071,15.6393980169296,20.0447908125883
10.9021448750282,4.12329275608063,11.3033613359928,10.8236078166962,16.183881080075
10.9121178749483,3.08958952099085,10.8943567872047,6.22336878955364,12.921412163766
10.9220898749772,2.4525,10.5537658309937,3.5286049041152,11.3950770964832
10.9320628750138,2.07065883770585,10.3278142154217,1.787032918185,10.6838598428242
10.9420358749339,2.08667611554265,10.3251361906528,1.30975627943873,10.6149948694399
10.9520078749629,2.24936582788825,10.4809118628502,1.02214577481151,10.7681912171669
10.9619808749994,2.35950018122792,10.5918627798557,0.564850533753634,10.8661793827449
10.9719538749196,2.36006107538939,10.6810690712929,0.271069900989533,10.9420566474735
10.9819258749485,2.4806110739708,10.8298830485344,0.361991765499115,11.1162419991438
10.9918988749851,2.67847558915615,11.0274803459644,0.308619550466538,11.3523037437019
11.0018718750216,2.68869622975588,11.2347080075741,0.560462636947632,11.5655466709865
11.0118438749341,2.64448221623898,11.3738951289654,1.05645402029157,11.7249678760198
11.0218168749707,2.64647874802351,11.4793449854851,1.65484959170222,11.896122823453
11.0317897499772,2.76338183820248,11.7586617994308,2.31953665494919,12.2997014919369
11.0417617500061,2.99793266147375,11.9277328705788,2.62087525248528,12.5748717195726
11.0517347499263,3.23774100869894,11.888724925518,2.26650591731072,12.528439498487
11.0617067499552,3.31682810872793,11.880211379528,1.64388620853424,12.4435980725723
11.0716797499917,3.30954393982887,11.8472880470753,1.19491594076157,12.3587677082109
11.0816527500283,3.29429820209742,11.7002890455723,0.847970230579376,12.1847535020709
11.0916247499408,3.21976374417543,11.4325532269478,0.612121617794037,11.8930586785012
11.1015977499774,3.17755532562733,11.1339721763134,0.483589292764664,11.5886173840722
11.1115707500139,3.11969741910696,10.8865472459793,0.40666456617415,11.3320253703874
11.1215427499264,3.05159840673208,10.7100724303722,0.322124352827668,11.1409904585936
11.131515749963,3.00142988115549,10.5539155197144,0.23589772939682,10.9749424539491
11.1414887499996,2.9193042755127,10.3603071928024,0.229620158672333,10.7661984005279
11.1514607500285,2.80811888515949,10.1505699062347,0.205207010060549,10.5338364811462
11.1614337499486,2.71720842272043,9.96100785255432,0.121018652915955,10.3256740489667
11.1714057499776,2.69404760152102,9.83833092927933,-0.0183707821369171,10.2005384876933
11.1813787500141,2.60451357364655,9.76778719604015,-0.216508362293243,10.1113813860114
11.1913517499343,2.31403354793787,9.57365671277046,-0.524237966537476,9.86328948984649
11.2013237499632,1.95090508371592,9.41732087731361,-0.932835549116135,9.66240887737888
11.2112967499997,2.01387141019106,9.56171435952187,-1.6898103864491,9.91652755212342
11.2212697499199,1.72386939436197,8.96563165426254,-2.36491338729858,9.43117659564046
11.2312417499488,1.03427216917276,8.31600541055203,-1.86241507619619,8.58453579550454
11.2412147499854,0.914255729019642,8.32428740680218,-0.591026033163071,8.39517338361555
11.2511877500219,0.88176728323102,8.02516665816307,-0.041755259335041,8.07357151047484
11.2611597499345,0.287117876708508,6.8077424454689,-1.7431906414032,7.03324302802343
11.271132749971,-0.479074511379004,4.63594972729683,-6.25303697705269,7.798846946688
11.2811057500076,-0.54818421497941,-1.62055464863777,-16.7154786550999,16.8027953023261
11.2910777499201,0.518198231309652,-20.8516083884239,-29.9957227921486,36.5349351664205
11.3010507499566,-0.744555205106735,-41.8490650463104,-35.1184801197052,54.6370410401396
11.3110227499856,-6.23641100406647,-58.9138645505905,-41.8116709327698,72.5117375649432
11.3209957500221,-11.0409406363964,-65.7697529697418,-40.2480225563049,77.8939413274879
11.3309687499423,-6.98958266615868,-64.7559861087799,-23.380391163826,69.2014067323857
11.3409407499712,3.07502410680056,-56.0630568981171,-6.03989193320274,56.4712530105689
11.3509137500077,8.97823006510735,-38.5825975441933,-0.00963621139526367,39.613451518591
11.3608867499279,11.4007104599476,-24.2314159798622,3.01288662314415,26.9483803814738
11.3708587499568,14.9935040509701,-22.5539340090752,14.7716057252884,30.8493993250362
11.3808317499934,19.2993784546852,-20.722658572197,33.1428977394104,43.5929611015589
11.3908047500299,24.1380499792099,-13.2009219789505,51.0424363946915,57.9848265583273
11.4007767499425,18.0787207317352,-4.64994386851788,48.2596295213699,51.7441200796411
11.410749749979,9.03141633868218,0.176777701377869,32.6477555179596,33.8743807588977
11.4207217500079,3.17293193221092,1.95418917238712,22.0437012934685,22.3564558703651
11.4306947499281,1.41925723314285,-0.429067515134811,12.8885590410233,12.9735632800058
11.4406677499646,1.89050013005734,-3.30871421992779,6.69425676047802,7.70289907152527
11.4506397499936,3.10817372649908,-5.49765857577324,3.04839033186436,7.01267975493508
11.4606127500301,4.23917258352041,-7.38584086954594,-0.237915895879269,8.51926249839963
11.4705857499503,3.28619688481093,-9.63604533433914,-2.93192373633385,10.5947456999618
11.4805577499792,1.8135101339221,-13.2170275497437,-6.55437791347504,14.8640003393827
11.4905307500158,2.33843544065952,-16.3787223029137,-16.6371856069565,23.4633068749146
11.5005037499359,1.92981490775943,-16.3919112825394,-23.9620090270042,29.0963368430303
11.5104757499648,0.465324052870274,-13.020302656889,-23.9068230056763,27.2264759742406
11.5204487500014,-0.855901978611946,-9.0821748483181,-20.2918591117859,22.2481013658465
11.5304207500303,-1.79371467769146,-5.42108811736107,-10.1658334779739,11.6597503842516
11.5403937499505,-2.30818925589323,-3.36641162037849,-3.23926040768623,5.21088023539631
11.550366749987,-2.89668052107096,-1.97123672962189,0.344562092721462,3.52068960874186
11.5603387500159,-3.30493399500847,-1.01448256015778,1.52597710490227,3.77893764183968
11.5703117499361,-3.07570910811424,0.408744932413101,0.7192949411273,3.18503440324302
11.5802847499726,-2.96320575535297,1.26800730586052,-0.121070985496044,3.22538200215132
11.5902567500016,-2.87339193820953,1.05444301664829,-0.442541546523571,3.09258376221653
11.6002297499217,-2.96612205415964,0.197062861919403,-0.416852973997593,3.00174619407616
11.6102027499583,-2.88168270528317,-0.710856531858444,-0.106691805124283,2.96998238447547
11.6201747499872,-2.48781133532524,-1.53895500004292,0.505100175887346,2.96862155217052
11.6301477500238,-2.16604578226805,-2.3318824660778,0.910612621307373,3.31038449618267
11.6401207499439,-1.94782184690237,-2.91842953205109,1.02330016136169,3.65491232467496
11.6500927499728,-1.78027865320444,-3.38022917568684,0.893074628859758,3.92338166075299
11.6600657500094,-1.74780497163534,-3.68364178061485,0.636802715063095,4.12668834353605
11.6700377499219,-1.72723753675818,-3.52551669716835,0.518057605773211,3.9599243898462
11.6800107499585,-1.76131686374545,-2.93056542813778,0.653767972737551,3.48107216031036
11.689983749995,-1.75764554321766,-2.11916485369206,0.927277185916901,2.90517133956649
11.6999557500239,-1.58635413810611,-1.25573984742165,1.18990005299449,2.34718217273504
11.7099287499441,-1.45209665805101,-0.363949998021126,1.48225279569626,2.10668404269171
11.7199017499806,-1.30581803351641,0.406623562574387,1.74417531251907,2.2164500849553
11.7298737500096,-1.21963709145784,1.00866808891296,2.01943649768829,2.56574545047763
11.7398467499297,-1.22423285678029,1.337778621912,2.21207681804895,2.86036388905587
11.7498197499663,-1.05661028712988,1.40862407147884,2.26851268172264,2.87172367416414
11.7597917499952,-0.800930257737637,1.59057714343071,2.14992530107498,2.79170265736991
11.7697647500318,-0.528896004706621,2.09368327260017,1.92642103761435,2.89384495851515
11.7797367499443,-0.324122931137681,2.34444579362869,1.74712479427457,2.94175573433987
11.7897097499808,0.192238616645336,2.44111430168152,1.44671575784683,2.84411343015817
11.7996827500174,0.967016032934189,2.38606568992138,1.00136257767677,2.76245479538458
11.8096547499299,1.14340752571821,3.15051955461502,0.787398923635483,3.44284058574065
11.8196277499665,0.558788286745548,4.32638526678085,0.707249969244003,4.41928233370738
11.829600750003,0.202424100860953,5.12844666838646,0.68912257745862,5.17849695122598
11.8395727500319,-0.0202278578281403,5.54560808300972,0.597917561531067,5.57778482795476
11.8495457499521,-0.201411436200142,5.66372534751892,0.491685347557068,5.6885943659012
11.8595187499886,-0.130040614306927,5.79476554334164,0.283809814453125,5.80316864087618
11.8694907500176,0.00222164958715439,5.62054658353329,-0.0329385352134705,5.62064353793199
11.8794637499377,0.00478415530174971,5.29643775880337,-0.324594107083976,5.30637702725444
11.8894367499743,0.113358489777893,5.02662617862225,-0.610356891565025,5.06481553680844
11.8994087500032,0.130749570932239,4.6326542365551,-0.979995682239533,4.73697923396113
11.9093817499233,0.379166207313538,3.94231558442116,-1.23177444934845,4.14763637196008
11.9193537499523,0.892322238385677,3.1486624789238,-1.34103902935982,3.53676406642661
11.9293267499888,1.42370228648186,2.1753910946846,-1.38395817697048,2.94526651611874
11.9392997500254,1.93490944057703,1.06307292222977,-1.42922205805779,2.62995708566721
11.9492717499379,2.4126032781601,0.0029937744140625,-1.51550532639027,2.84910862109386
11.9592447499745,2.85895603984594,-0.832624797821045,-1.62390978097916,3.39175126866312
11.969217750011,3.31584577649832,-1.23804968118668,-1.86280128479004,3.99970359567101
11.9791897499235,3.74151108920574,-1.1082976269722,-2.43006657242775,4.59700472123235
11.9891627499601,3.82114431917667,-0.588999388217926,-2.98939718842506,4.8871832109571
11.9991357499966,3.60377115368843,0.040544593334198,-3.21871563076973,4.83207416167911
12.0091077500256,3.20017615646124,0.185346211194992,-3.02525582313538,4.40768118695101
12.0190807499457,2.56541879743338,0.246373600959778,-2.47473930001259,3.57301107757885
12.0290540416026,2.06087629973888,0.932357246875763,-1.96968253970146,2.99935834235124
12.0390260416316,1.87381831616163,1.3294504326582,-1.40633020877838,2.69377025579401
12.0489990416681,1.42094590902329,1.03684523642063,-0.704414069652557,1.8948178018434
12.0589710416971,0.999219573140144,1.01482637643814,-0.23359743475914,1.44321865674852
12.0689440416172,1.21241453759372,0.60412555038929,0.00848372290609404,1.35461753464072
12.0789170416538,1.37865036696196,0.00733182370662689,-0.0373859365750104,1.37917667404027
12.0888890416827,1.19987971521914,-0.376419770121574,-0.407664915136993,1.32196590627988
12.0988620416028,0.949859425127506,-0.777429420948029,-0.911951633691788,1.52914525609972
12.1088350416394,0.663767954036594,-1.34227045297623,-1.46219099879265,2.09291193858919
12.1188070416683,0.409880315512419,-1.9207635641098,-2.19005313411355,2.94171162293263
12.1287800415885,-0.0763555732369423,-1.83603916347027,-3.05734534263611,3.56710394122454
12.138753041625,-0.633935094326735,-1.10949455201626,-3.69859603464603,3.91311442361096
12.148725041654,-0.744624202251434,-0.1206157797575,-3.79736310839653,3.87156040194597
12.1586980416905,-0.688719704300165,1.16011214375496,-3.29988784790039,3.5650322335008
12.1686710416107,-0.657579480260611,2.38985702455044,-2.6296507537365,3.61370868461748
12.1786430416396,-0.435879009738565,2.56311996459961,-1.70583570420742,3.10957391193852
12.1886160416761,-0.0340457054972649,2.46703968644142,-0.889428158998489,2.62269448746118
12.1985880415887,0.338621321618557,1.98137697100639,-0.422060211896896,2.05393620230903
12.2085610416252,0.974086047559977,1.04784384906292,0.0403603877685964,1.43124048327695
12.2185340416618,1.69269554883242,0.0208090710639954,0.388725235462189,1.73688184605654
12.2285060416907,2.24490250200033,-0.642058777213097,0.579577184915543,2.40577148336212
12.2384790416108,2.59431281358004,-1.03439934611321,0.628107905387878,2.86268414652328
12.2484520416474,2.67506987839937,-0.979436688423157,0.54845830321312,2.90105180776083
12.2584240416763,2.4870582139492,-0.575223932862282,0.39770195402205,2.58350691439808
12.2683970415965,2.30000169217587,-0.716188023090363,0.452627116441727,2.45108228645394
12.278370041633,2.19998989239335,-0.897592041492462,0.659493566304445,2.46587890286212
12.288342041662,1.99463845610619,-0.393556205034256,0.786982748061419,2.18009424173473
12.2983150416985,1.82568520635366,-0.466496711969376,1.05284146428108,2.15852282913255
12.308287041611,1.78313823401928,-0.435888292193413,1.10845418617129,2.14435334022482
12.3182600416476,1.61654638230801,-0.442890332937241,1.14471744820476,2.02971724370336
12.3282330416841,1.65980554550886,-0.482920956015587,1.24724048092961,2.13161345368491
12.3382050415967,1.15790591619909,0.283314555287361,1.48567122414708,1.90479191363918
12.3481780416332,0.691910383701325,0.972645147442818,1.71983452320099,2.09346825844381
12.3581510416698,0.502060939371586,1.20844405889511,1.81319467663765,2.23608523221023
12.3681230416987,0.420032105147839,1.33906734824181,1.8220134472847,2.29983941495239
12.3780960416188,0.397324443161488,1.14569817245007,1.78455033659935,2.15757060587733
12.3880690416554,0.343361951708794,0.607063776254654,1.62365250349045,1.76710817733738
12.3980410416843,0.249456106871367,-0.187531900405884,1.38171211525798,1.41651859584544
12.4080140416045,0.00831430211663246,-0.734389820694923,1.09464101627469,1.31819440556805
12.417987041641,-0.223397844135761,-1.00459141016006,0.862237436771393,1.34259595392731
12.42795904167,-0.406385580897331,-1.13936388373375,0.801420546770096,1.45105967923562
12.4379320415901,-0.461946116387844,-1.01646008849144,0.948515296429396,1.46501419566582
12.447904041619,-0.431083635091782,-0.534791021347046,1.1487732231617,1.33847467484845
12.4578770416556,-0.581281648278237,0.0843718135356903,1.25793021440506,1.38830665987653
12.4678500416921,-0.861198971271515,0.56226124048233,1.36210654735565,1.70679102910022
12.4778220416047,-1.11902405172586,0.854922569990158,1.44002654314041,2.01414594157635
12.4877950416412,-1.43835804015398,1.56866060972214,1.40103730916977,2.54803365398793
12.4977680416778,-1.45775120794773,1.31497448086739,0.500633926391602,2.02603820246801
12.5077400415903,-0.798588155508041,-0.924485725164414,-1.79886315107346,2.17447132297495
12.5177130416268,-0.562297493219376,-1.55884079575539,-3.11409140110016,3.52756691670024
12.5276860416634,-0.665430390536785,-1.31049726784229,-2.57235681116581,2.9626373820674
12.5376580416923,-0.745139634311199,-0.864861082434654,-1.36713573753834,1.78108896223237
12.5476310416125,-0.786622121036053,-0.194083120822907,-0.50598997592926,0.95523215755779
12.557604041649,-0.641191050410271,-0.262441749572754,-0.207014238238335,0.723088189558115
12.567576041678,-0.740028290748596,0.126536085605621,0.0609624856710434,0.753239455105662
12.5775490415981,-0.210013275146484,-0.311282957196236,-0.319822815656662,0.493243640195332
12.587521041627,0.775072993040085,-2.06719304680824,-1.25468851804733,2.53934411111064
12.5974940416636,0.818782976567745,-2.02103629589081,-1.51147776424885,2.65321659572751
12.6074670417001,0.385730583965778,-1.33073623538017,-1.14545551300049,1.79769723363629
12.6174390416127,-0.405679529607296,-0.437522588968277,-0.805762689113617,1.00262426051214
12.6274120416492,-1.04228957891464,0.000887022614479065,-0.60380453824997,1.20455314267758
12.6373850416858,-1.43992787137628,0.257993772625923,-0.482712210416794,1.54044283878547
12.6473570415983,-1.64292931169271,0.343882938623428,-0.371788190603256,1.71921454663676
12.6573300416349,-1.62090811282396,0.318927022218704,-0.337415918111801,1.6860922446637
12.6673030416714,-1.37059538885951,0.214754197597504,-0.331214945912361,1.42630797016087
12.6772750417003,-1.06688647627831,0.203626946210861,-0.326592721939087,1.13418406465277
12.6872480416205,-0.70745798394084,0.147414738535881,-0.247419083118439,0.763835130686203
12.697221041657,-0.400012700557709,0.0431430959701538,-0.224092200994492,0.46053099991631
12.707193041686,-0.254499184191227,0.0516917252540588,-0.174897236824036,0.313098886396014
12.7171660416061,-0.0727400936186314,0.0615355128049851,-0.044748723115772,0.105262475632638
12.727138041635,0.136453401893377,-0.104153528809547,0.0557497020531446,0.180486890744927
12.7371110416716,0.239390271306038,-0.340520789623261,0.086558681325987,0.425152343842206
12.7470840415917,0.165374169051647,-0.319212366342545,-0.0396686712931842,0.361688753070504
12.7570560416207,0.19829180046916,-0.243075186610222,0.0171253240609076,0.314163112416284
12.7670290416572,0.31042078524828,-0.284287531971931,0.229634191989899,0.479491738072414
12.7770020416938,0.231861688792706,0.017277352809906,-0.167809205465019,0.286737299786275
12.7869740416063,0.159485730528832,0.351107758283615,-0.795754594802857,0.884272430486849
12.7969470416429,0.202198763787746,0.417272511720657,-1.44736012101173,1.51981972911594
12.8069200416794,0.532804429829121,0.364228910207748,-2.18343803286552,2.27682781580873
12.8168920415919,0.886452949494124,0.320514541268349,-2.67180683970451,2.83321022720219
12.8268650416285,1.50602289676666,0.448485533595085,-2.15887621879578,2.67020425576611
12.836838041665,1.69690905243158,1.22346847951412,-1.29298895001411,2.45930800784437
12.846810041694,1.4714269682765,1.48261532306671,-1.14287447892129,2.3810517830852
12.8567830416141,1.49643960267305,1.02345745146275,-1.28532968223095,2.22235663911687
12.866755041643,1.60554689258337,0.660486277341843,-0.93260984659195,1.97073186222816
12.8767280416796,1.67063926666975,0.421802349686623,-0.528285409212112,1.80223146546896
12.8867010415997,1.60667335867882,0.148801113367081,-0.23893007716164,1.63114335194673
12.8966730416287,1.60377313971519,-0.0658706384897232,0.0496463692188263,1.60589289389535
12.9066460416652,1.55592975944281,-0.0839595848321915,0.0182479906082153,1.5583002333845
12.9166190415854,1.13602629303932,0.323961474895477,0.0390267292410135,1.18196017753915
12.9265910416143,0.750095003396273,0.681040994524956,0.413710461035371,1.09435629294745
12.9365640416509,0.540612947791815,0.826465340852738,0.627700062096119,1.17017720320747
12.9465370416874,0.675800427496433,0.474008045196533,0.782944368571043,1.13771337734621
12.9565090415999,0.845274956524372,0.140937193036079,0.920153084546328,1.25739204049822
12.9664820416365,0.901639484167099,0.10451488673687,1.07535821467638,1.40722152159165
12.976455041673,0.862272666245699,0.108823699951172,1.17339511737227,1.46020986508742
12.9864270415856,0.764014154076576,0.189411195516586,1.25279065802693,1.47955353450152
12.9964000416221,0.626728839576244,0.250895837545395,1.29402887731791,1.4595370824295
13.006372041651,0.529854217171669,0.0961598002910614,1.28765175774693,1.39572176592449
13.0163450416876,0.484139515757561,-0.247245420813561,1.3365167927742,1.44284389529799
13.0263180416077,0.412295069396496,-0.650019176602364,1.39959523960948,1.5973036620934
13.0362898749299,0.241022667735815,-0.953080948591232,1.41752192571759,1.72505757319
13.0462628749665,0.00826036155223846,-1.13317109763622,1.47225858852267,1.85787252565127
13.056235875003,-0.223243477642536,-1.02412637293339,1.62362443685532,1.932570513591
13.066207875032,-0.458191765397787,-0.53823970913887,1.758289321661,1.89505224651969
13.0761808749521,-0.583041952550411,0.0812558323144913,1.80100337818265,1.89477006439943
13.0861538749887,-0.517382983267307,0.329139769077301,1.92185933232307,2.01731540226117
13.0961258750176,-0.321104671508074,0.114265703558922,2.05072377920151,2.07885374176651
13.1060988749377,-0.159724004566669,-0.0387915980815887,2.05897303104401,2.06552329647552
13.1160718749743,-0.0773181711137295,-0.113554097414017,1.92552202820778,1.93041646121693
13.1260438750032,-0.250830056369305,0.110830464363098,1.67146036192775,1.69380602505269
13.1360168749234,-0.611784964352846,0.513752739429474,1.26327354624867,1.49468484053703
13.1459888749523,-0.915225489735603,0.909063693881035,0.766384030580521,1.50045958923366
13.1559618749889,-1.11921437859535,1.33566076040268,0.383275630474091,1.78424513479773
13.1659348750254,-1.23081579834223,1.50814660549164,-0.178666352033615,1.95482361824635
13.1759068749379,-1.41412980973721,1.5182926940918,-0.939847457036376,2.27778161073832
13.1858798749745,-1.43147265136242,1.21382759034634,-1.56315487146378,2.44252830543793
13.195852875011,-1.11613231122494,0.111350866556168,-2.14283145904541,2.41865190002981
13.2058248749236,-0.474162996411324,-1.57547612428665,-2.53097431182861,3.01873922896619
13.2157978749601,0.254874867796898,-2.99378844738007,-2.36750370383263,3.82528485913952
13.2257708749967,0.304980828166008,-2.80476375281811,-2.08948614120483,3.51079269524109
13.2357428750256,0.147022682726383,-2.19068507194519,-2.44063366055489,3.28289649832478
13.2457158749457,0.175566743016243,-1.44899968028069,-2.33436168551445,2.75311972741919
13.2556888749823,0.153205820918083,-0.612385911941528,-2.36410997986794,2.44693778540011
13.2656608750112,-0.0910101574659348,0.421114717125893,-2.44291290521622,2.48061361687263
13.2756338749314,-0.37286963313818,1.21456141591072,-2.53079772591591,2.83180654809554
13.2856058749603,-0.498618098795414,1.54095942556858,-2.65016395568848,3.10588875391979
13.2955788749969,-0.410424837470055,1.57278289675713,-2.43034373044968,2.92381005465131
13.3055518750334,0.0070356622338295,1.15960460543633,-1.77725681215525,2.12211548174091
13.3155238749459,0.0312922516465187,1.67987348198891,-0.493670184910297,1.75118941636021
13.3254968749825,0.31469042211771,1.65200038969517,-0.422555178701878,1.73398045789835
13.335469875019,1.14504065304995,-0.460066528916359,-1.64962817430496,2.06010980814784
13.3454418749316,0.949449827671051,-0.712525911927223,-2.38740762591362,2.66624517302945
13.3554148749681,0.55793371617794,-0.478022158741951,-2.95695625126362,3.04686486208093
13.3653878750047,0.060713686645031,-0.112809162139893,-2.66881189584732,2.67188491410557
13.3753598750336,-0.215494747459888,0.155338300466538,-1.94874702259898,1.96676966924524
13.3853328749537,-0.431689406633377,0.285914812088013,-1.26713139295578,1.36884074697711
13.3953058749903,-0.629231740236282,0.176143278479576,-0.637658747434616,0.91299929663401
13.4052778750192,-0.862223111093044,-0.166338082551956,0.0540671566128731,0.879784239705526
13.4152508749394,-0.974363644123077,-0.604402123689652,1.07344851404428,1.57066169190353
13.4252228749683,-0.983986699283123,-1.14548591852188,2.3588629809022,2.80082173237941
13.4351958750049,-0.596157988160849,-1.13590525567532,3.7521433737874,3.96538333508572
13.445168874925,-0.000122791528701782,-0.469078257679939,4.27245961278677,4.29813280039134
13.4551408749539,0.249160968661308,0.0423829579353333,3.99294165462256,4.00093246139541
13.4651138749905,0.370655292570591,0.0582721817493439,3.41677456587553,3.43731427528679
13.475086875027,0.664705043435097,0.118026047945023,2.31048867344856,2.40709801480864
13.4850588749396,1.13496180742979,0.278517499566078,1.11654804825783,1.61628891166066
13.4950318749761,1.62114156290889,0.276525353193283,0.196460598707199,1.65624968069242
13.5050048750127,2.1032308986783,0.0676259726285935,-0.444716564565897,2.15079666824375
13.5149768749252,2.39669168874621,0.0197437083721161,-1.16527201920748,2.66502903242598
13.5249498749617,2.39170752212405,0.0995582020282746,-1.7403269675374,2.95954636066303
13.5349228749983,2.16597707748413,0.116922678351402,-1.84164371967316,2.845484001556
13.5448948750272,1.79312440127134,0.210348905324936,-1.63028997033834,2.43256801915011
13.5548678749474,1.29424259305,0.287373107671738,-1.2381267182529,1.81400247054115
13.5648398749763,0.640983035713434,0.165311896204948,-0.725218024402857,0.981900431824973
13.5748128750129,-0.00577295601367951,-0.207070956230164,-0.0891492810845375,0.225520070621442
13.584785874933,-0.71327113956213,-0.511232589483261,0.607858997583389,1.06752378897386
13.5947578749619,-1.42348564714193,-0.568397893309593,1.21192052096128,1.95400586024325
13.6047308749985,-1.84809129819274,-0.461357009410858,1.54454172223806,2.4523256040588
13.6147038749186,-2.16222784280777,-0.496174255013466,1.71327336251736,2.80298479308448
13.6246758749476,-2.11770568102598,-0.267521225810051,1.49271317213774,2.60469529350021
13.6346488749841,-1.7354746556282,-0.0940588957071304,0.897459017336369,1.95605522518866
13.6446218750207,-1.23341371625662,-0.0411532884836197,0.186502498090267,1.24811304391745
13.6545938749332,-0.842981240004301,-0.0648403590917587,-0.473040769547224,0.96880814035606
13.6645668749698,-0.549665460884571,-0.20489169895649,-1.01034974813461,1.16829762507094
13.6745398750063,-0.341475932300091,-0.397238196730614,-1.30541983813047,1.4066004944783
13.6845118749188,-0.0351234935224056,-0.299808965921402,-1.52189721018076,1.55154445447111
13.6944848749554,0.342501387745142,0.219495120048523,-1.70503902107477,1.75289571045173
13.7044568749843,0.549320475161076,0.763401365876198,-1.4222244027257,1.70506799910188
13.7144298750209,0.761554376631975,1.1587351244688,-0.919361517727375,1.66368799885166
13.724402874941,1.06183799028397,1.31888159036636,-0.363560281097889,1.73179809591349
13.7343748749699,1.48302068129182,1.17207379281521,0.208376054763794,1.90171709177322
13.7443478750065,2.0132397647202,0.735637031793594,0.860221316814423,2.30960535734975
