"Time (s)","Linear Acceleration x (m/s^2)","Linear Acceleration y (m/s^2)","Linear Acceleration z (m/s^2)","Absolute acceleration (m/s^2)"
1.898249990E-3,-7.429033667E-2,4.169474065E-2,-5.444284022E-1,5.510533464E-1
1.184125000E-2,-1.155798653E-1,1.666772211E-1,-1.244113244E0,1.260538680E0
2.178425001E-2,-3.743302676E-1,4.537804797E-1,-9.356615084E-1,1.105215966E0
3.172725000E-2,-3.635409853E-1,5.649576840E-1,-2.054694039E-1,7.025360550E-1
4.167025001E-2,2.845108956E-2,4.014151552E-1,3.751830840E-1,5.501871844E-1
5.161324999E-2,-5.475040376E-3,1.032083264E-1,5.906026947E-1,5.995777495E-1
6.155625000E-2,-2.806371152E-3,-5.385402560E-2,1.929247874E-1,2.003200075E-1
7.149924999E-2,2.590793082E-1,6.423020214E-2,-5.237234116E-1,5.878212472E-1
8.144225000E-2,1.460108221E-2,1.031048892E0,-4.685672110E-1,1.132620960E0
9.138624999E-2,4.753450111E-1,1.442133880E0,1.570889568E-1,1.526558203E0
1.013292500E-1,5.420877618E-1,1.285713260E0,2.068091764E0,2.494778802E0
1.112722500E-1,3.505122194E-1,1.392220877E0,8.429965889E-1,1.664866672E0
1.212152500E-1,4.322519088E-1,1.441817253E0,-1.686255133E-1,1.514633047E0
1.311582500E-1,1.049585296E0,9.543465784E-1,3.170377868E-1,1.453588540E0
1.411012500E-1,1.424591063E0,2.708541387E-1,4.707920766E-1,1.524620229E0
1.510442500E-1,1.584164063E0,-2.668037724E-1,-1.871225953E-1,1.617335741E0
1.609872500E-1,1.807639237E0,-1.409506416E-1,-8.771770728E-1,2.014166406E0
1.709302500E-1,1.843375665E0,-2.325998998E-1,-2.200682641E0,2.880128581E0
1.808732500E-1,1.854798785E0,-8.195980784E-1,-3.153768852E0,3.749436960E0
1.908172500E-1,1.630020414E0,-1.522312070E0,-2.744522814E0,3.536496297E0
2.007602500E-1,2.281443799E0,-1.927861353E0,-1.529793583E0,3.355875983E0
2.107032500E-1,1.258834194E0,-2.125217891E0,-6.456787884E-2,2.470907450E0
2.206462500E-1,4.054336542E-1,-2.586026140E0,9.551093477E-1,2.786420914E0
2.305892500E-1,-4.502822368E-1,-2.643349026E0,1.923853233E0,3.300190817E0
2.405322500E-1,-1.011532274E0,-2.111501785E0,1.359229133E0,2.707238661E0
2.504752500E-1,-7.054016644E-1,-1.658805672E0,-2.997750521E-1,1.827318485E0
2.604182500E-1,-3.301376330E-1,-1.711641112E0,-1.437256717E0,2.259294807E0
2.703612500E-1,-5.436626362E-1,-1.653483828E0,-1.162847471E0,2.093273053E0
2.803042500E-1,-1.536546678E-1,-1.575127484E0,-8.260630524E-1,1.785221699E0
2.902472500E-1,4.689277650E-1,-1.209458112E0,-7.957475781E-1,1.521806946E0
3.001902500E-1,1.568583280E0,-1.674735972E0,-3.946467108E-1,2.328291242E0
3.101342500E-1,2.991855066E0,-3.110963725E0,2.960211396E-2,4.316267869E0
3.200772500E-1,3.436188199E0,-4.302197382E0,1.471473454E0,5.699256599E0
3.300202500E-1,2.412225840E0,-4.566618999E0,1.723826417E0,5.444668962E0
3.399632500E-1,3.123331171E-1,-4.165025796E0,9.765464097E-1,4.289362977E0
3.499062500E-1,-8.737977329E0,4.584483120E-1,-2.068946042E0,8.991271345E0
3.598492500E-1,-1.210940937E1,2.665752048E0,-4.361791912E0,1.314417201E1
3.697922500E-1,-3.071021688E0,-2.389336184E0,-3.394046146E0,5.163298447E0
3.797352500E-1,2.075211626E0,-5.244063079E0,-2.534962698E0,6.183262629E0
3.896782500E-1,1.525454364E0,-4.853550349E0,-1.511742643E0,5.307478481E0
3.996212500E-1,-9.328910977E-1,-3.072752756E0,-3.126365876E-1,3.226427891E0
4.095642500E-1,-5.815334879E0,1.673685081E-1,1.942164373E-1,5.820983765E0
4.195072500E-1,-8.444540074E0,1.980845898E0,-2.489165550E0,9.023854646E0
4.294512500E-1,-4.427273126E0,-2.018339560E0,-4.003145923E0,6.300763382E0
4.393942500E-1,-3.273530354E0,-4.554247752E0,-3.572740565E0,6.649935993E0
4.493372500E-1,-3.490628700E0,-4.302355257E0,-2.747853388E0,6.184290397E0
4.592802500E-1,-3.618381007E0,-2.874064660E0,-2.600145704E0,5.302234101E0
4.692232500E-1,-3.558598489E0,-1.341061541E0,-1.722074592E0,4.174638926E0
4.791662500E-1,-2.593175822E0,-1.238513073E0,-6.202428156E-1,2.939927997E0
4.891092500E-1,-2.685310400E0,-3.276096989E0,4.216906679E-1,4.256938623E0
4.990522500E-1,-1.897153092E0,-3.352989044E0,3.406143451E-1,3.867524211E0
5.089952500E-1,-3.044504857E-1,-2.031643730E0,8.033933973E-1,2.205834829E0
5.189382500E-1,2.353451675E-1,-2.074423421E0,3.584919146E0,4.148525661E0
5.288812500E-1,1.575301877E0,-2.665521960E0,8.293260326E0,8.852386693E0
5.388242500E-1,1.690669781E0,-5.000890828E0,5.006105375E0,7.275188273E0
5.487672500E-1,2.470347456E0,-8.420181159E0,8.837923202E-1,8.819475958E0
5.587112500E-1,4.311099476E-1,-5.758733831E0,1.557659366E0,5.981235142E0
5.686542500E-1,-9.763136905E-1,-2.712123684E0,3.630559295E0,4.635705350E0
5.785972500E-1,-6.985516512E-1,-3.009413669E0,2.113360907E0,3.743105578E0
5.885402500E-1,-2.441586757E-1,-3.041209074E0,2.434906898E0,3.903503259E0
5.984832500E-1,2.263188207E-1,-2.529266925E0,3.285255775E0,4.152266477E0
6.084262500E-1,6.178963280E-1,-1.881856191E0,3.631550691E0,4.136585429E0
6.183692500E-1,3.182279291E0,-1.487161241E0,1.942257929E0,4.013840543E0
6.283122500E-1,1.774748064E0,-3.989847600E-2,3.950858951E0,4.331351871E0
6.382552500E-1,-2.180132017E0,1.169696900E0,5.747967938E0,6.257819258E0
6.481982500E-1,1.550851160E0,1.001141553E0,3.575121551E0,4.023545431E0
6.581416250E-1,4.853793009E0,5.857766953E-1,3.801033990E0,6.192761929E0
6.680846250E-1,5.559368336E0,-9.980980772E-1,5.206176045E0,7.681604329E0
6.780276250E-1,6.490346809E0,-2.824980501E0,6.076436446E0,9.328890417E0
6.879706250E-1,6.354428866E0,-2.533650582E0,7.086488571E0,9.849693993E0
6.979146250E-1,5.729490736E0,-1.173639677E0,7.602394255E0,9.591709577E0
7.078576250E-1,5.934970080E0,-8.410921508E-1,7.757301616E0,9.803419517E0
7.178006250E-1,6.276565588E0,-1.022330108E0,7.807328639E0,1.006949924E1
7.277436250E-1,6.409373982E0,-1.206254277E0,7.320956072E0,9.804668379E0
7.376866250E-1,6.335307301E0,-5.906091267E-1,6.315598676E0,8.965027852E0
7.476296250E-1,5.521871311E0,4.440697163E-1,5.941476862E0,8.123386485E0
7.575726250E-1,5.317544453E0,5.881632364E-1,4.962595659E0,7.297230343E0
7.675156250E-1,6.625661319E0,1.038333938E0,2.005725362E0,7.000032822E0
7.774586250E-1,7.314994835E0,2.376997243E0,-3.105767305E0,8.294881306E0
7.874016250E-1,6.195357118E0,3.237227331E0,-4.443547973E0,8.282946891E0
7.973446250E-1,5.758894629E0,3.891606776E0,-2.799303038E0,7.493034642E0
8.072876250E-1,4.341685091E0,4.106279113E0,-2.226730818E0,6.377310383E0
8.172306250E-1,4.402135946E0,4.883589835E0,-2.476209290E0,7.025657479E0
8.271736250E-1,5.991756485E0,5.284931608E0,-2.735476002E0,8.444789922E0
8.371176250E-1,6.800063882E0,5.040090562E0,-3.142764392E0,9.028862038E0
8.470606250E-1,5.426638294E0,4.851811972E0,-3.131214095E0,7.924202439E0
8.570036250E-1,4.073589084E0,4.321198786E0,-3.414438311E0,6.850202622E0
8.669466250E-1,2.949932283E0,3.135823163E0,-1.064042975E0,4.434825232E0
8.768896250E-1,2.856452262E0,1.958795609E0,1.305927084E0,3.701573356E0
8.868326250E-1,2.351771770E0,2.129367660E0,-2.214749873E-2,3.172621566E0
8.967756250E-1,1.154331002E0,1.976434904E0,2.375367039E-1,2.301129870E0
9.067186250E-1,7.381794012E-1,1.745631269E0,1.017240107E-1,1.898021373E0
9.166616250E-1,-1.305180395E-1,2.373452661E0,-1.074284374E0,2.608524374E0
9.266046250E-1,-5.059823745E-1,2.117036467E0,-9.138092941E-1,2.360700954E0
9.365476250E-1,-7.426960829E-1,1.905409945E0,-7.242940181E-1,2.169512931E0
9.464906250E-1,-2.508674785E-1,7.704513538E-1,1.138041244E0,1.397020992E0
9.564336250E-1,-2.624402878E-1,1.445977255E0,5.639165872E-1,1.574079745E0
9.663766250E-1,-6.749335778E-1,5.394126606E-1,-3.023858339E-1,9.153898324E-1
9.763196250E-1,8.608396599E-1,-3.372797365E0,3.087845004E0,4.653127309E0
9.862636250E-1,2.003882612E0,-4.853925741E0,7.500587214E0,9.156142702E0
9.962066250E-1,8.900336382E-1,-3.338947248E0,8.415900997E0,9.097698511E0
1.006149625E0,2.692598954E-1,-8.507728010E-1,1.208566850E0,1.502314575E0
1.016092625E0,-6.392826654E-1,1.379605510E0,-2.926760645E0,3.298169426E0
1.026035625E0,-8.335084583E-1,3.246716777E0,-6.624191914E0,7.424003280E0
1.035978625E0,-1.057379781E0,4.133882064E0,-6.880868894E0,8.096504780E0
1.045921625E0,-1.903956620E0,4.345524958E0,-4.888469921E0,6.812178517E0
1.055864625E0,-1.814626952E0,4.011613861E0,-3.659686323E0,5.725314028E0
1.065807625E0,-1.760388764E0,3.444083109E0,-2.700606716E0,4.717409639E0
1.075750625E0,-2.458536081E0,3.132300800E0,-2.444147252E0,4.672211870E0
1.085693625E0,-4.353594115E0,1.907530730E0,-1.687163206E0,5.043706464E0
1.095636625E0,-5.824595114E0,2.469580302E0,-8.282580972E-2,6.327052649E0
1.105579625E0,-7.382245417E0,3.264868289E0,-3.695530924E-1,8.080438220E0
1.115522625E0,-6.932557111E0,3.218358951E0,-1.143627673E0,7.728264144E0
1.125465625E0,-4.269653826E0,2.900413091E0,4.018177360E-1,5.177238394E0
1.135408625E0,-1.676939934E0,2.215247471E0,1.718553691E0,3.266936743E0
1.145352625E0,1.460225165E-1,1.945811867E0,7.331674603E-1,2.084476174E0
1.155295625E0,9.389836040E-1,2.317493638E0,-1.618527711E0,2.978606876E0
1.165238625E0,1.886154772E0,2.010677953E0,-1.419579707E0,3.100905061E0
1.175181625E0,1.916743896E0,-4.646115696E-1,-1.532309055E0,2.497547219E0
1.185124625E0,1.401022983E0,-2.272678823E0,5.346743694E-1,2.722831452E0
1.195067625E0,7.113453591E-1,-3.346761467E0,2.526605272E-1,3.430839822E0
1.205010625E0,6.568443391E-1,-2.778232597E0,-4.770915744E-1,2.894414831E0
1.214953625E0,9.958831519E-1,-2.261729327E0,-1.118934443E0,2.712787697E0
1.224896625E0,1.551687897E0,-1.081530243E0,-2.088606135E0,2.817750625E0
1.234839625E0,1.255181731E0,-3.003065640E-1,-2.295299069E0,2.633260911E0
1.244782625E0,2.726644367E-2,3.286994737E-1,-2.133159141E0,2.158507522E0
1.254725625E0,-1.379658427E0,4.311789447E-1,-1.122136817E0,1.829908111E0
1.264668625E0,-1.474331865E0,9.846886575E-2,8.430005358E-1,1.701176202E0
1.274611625E0,-1.912863976E-1,-9.326075077E-1,2.464917732E0,2.642378980E0
1.284554625E0,2.228465394E0,-2.642094213E0,4.463042298E0,5.644950522E0
1.294497625E0,3.749887518E0,-4.191122212E0,5.292866279E0,7.722797113E0
1.304441625E0,4.240725312E0,-3.887849940E0,3.934037097E0,6.969632429E0
1.314384625E0,3.886859714E0,-2.673819451E0,1.550287927E0,4.965922024E0
1.324327625E0,3.693476213E0,-1.423119904E0,4.298381782E-1,3.981431609E0
1.334270625E0,2.958451092E0,-1.497653192E-1,3.092013484E-1,2.978333089E0
1.344213625E0,1.178958305E0,1.512000505E0,2.886121327E-1,1.938913401E0
1.354156625E0,1.021934837E0,2.116532437E0,-3.199936274E-1,2.372015238E0
1.364099625E0,9.855631086E-1,1.692125153E0,4.786746349E-1,2.015874892E0
1.374042625E0,-9.875461918E-1,-8.849638098E-1,-1.024496502E-1,1.330001638E0
1.383985625E0,-6.475782564E-1,-5.378075999E-1,2.050944804E0,2.216972982E0
1.393928625E0,-8.279207128E-1,-6.060393441E-1,1.833501472E0,2.101062598E0
1.403871625E0,4.456505111E-1,1.243995130E-2,2.011010660E0,2.059835674E0
1.413814625E0,1.903808101E0,1.545392200E0,2.370089343E0,3.410285300E0
1.423757625E0,-1.067730522E0,2.244836136E0,-1.113778807E0,2.723938504E0
1.433700625E0,-2.034674926E0,1.127470647E0,-1.417117152E0,2.723841614E0
1.443643625E0,-1.880047940E0,7.996523488E-1,-3.758660753E-1,2.077329883E0
1.453586625E0,-1.624232840E0,1.695227101E0,-1.764999952E-1,2.354374543E0
1.463529625E0,-2.708826731E0,1.943882285E0,-7.654911608E-1,3.420876688E0
1.473473625E0,-2.803829952E0,1.447688150E0,2.230361938E-1,3.163385611E0
1.483416625E0,-2.646581951E0,1.757757810E0,6.573404753E-1,3.244411355E0
1.493359625E0,-2.199963726E0,2.624048536E0,-1.456634609E-1,3.427344302E0
1.503302625E0,-2.604286702E0,2.045396966E0,-4.750839329E-1,3.345394254E0
1.513245625E0,-2.415628043E0,2.254295762E0,-6.033040897E-1,3.358732506E0
1.523188625E0,-3.105621709E0,1.923485443E0,-1.239655327E0,3.857645367E0
1.533131625E0,-1.955276024E0,1.590735603E0,-1.399609419E0,2.883132084E0
1.543074625E0,8.272972535E-1,1.279778336E0,-1.585224602E0,2.198906631E0
1.553017625E0,3.059131959E0,1.252212222E0,-2.096436580E-1,3.312140434E0
1.562960625E0,4.290910794E0,1.018456913E0,2.323931422E0,4.984960098E0
1.572903625E0,2.985377228E0,-9.971894199E-1,3.113497324E0,4.427271114E0
1.582846625E0,2.857673745E0,-3.811279482E-1,1.950933881E0,3.481048801E0
1.592789625E0,2.334183053E0,-4.075819212E-1,1.873506367E0,3.020688606E0
1.602732625E0,1.398352560E0,-1.679621467E0,1.132873474E0,2.461690570E0
1.612675625E0,3.997712106E-1,-7.075627953E-1,4.106348256E-1,9.105399991E-1
1.622618625E0,-1.166765690E0,8.494355428E-1,-2.850200419E-1,1.471094607E0
1.632561625E0,-1.637209565E0,2.720697164E0,-5.018150640E-1,3.214726517E0
1.642505625E0,-1.247470423E0,4.517810243E0,-2.361713791E-1,4.692820982E0
1.652448125E0,-1.275856517E-1,5.551057103E0,-9.034518287E-2,5.553258081E0
1.662391125E0,3.310187718E-1,5.847206297E0,-8.635494058E-1,5.919891256E0
1.672334125E0,6.556135002E-1,5.579969831E0,-8.992715080E-1,5.689866573E0
1.682277125E0,5.352567521E-1,6.099770345E0,3.550499511E-1,6.133494805E0
1.692220125E0,1.181138293E0,5.386141648E0,1.564247424E0,5.731708255E0
1.702163125E0,2.258048505E0,-9.230899948E-1,5.058034497E0,5.615566861E0
1.712106125E0,2.019286224E0,-7.231777847E0,8.426984979E0,1.128672687E1
1.722049125E0,1.327952668E0,-1.182179536E1,9.045371304E0,1.494446539E1
1.731992125E0,1.647870355E-1,-1.245390977E1,5.978279822E0,1.381545703E1
1.741935125E0,-1.257140840E0,-8.841695241E0,-6.950959468E-1,8.957630055E0
1.751878125E0,-1.686907682E0,-4.667926980E0,-6.403246685E0,8.101652173E0
1.761821125E0,-1.322300457E0,-2.961790144E0,-8.549852521E0,9.144433142E0
1.771764125E0,-5.967949327E-1,-2.619466658E0,-7.789313368E0,8.239609973E0
1.781707125E0,-8.675192267E-2,-3.443717659E0,-3.772078578E0,5.108355314E0
1.791650125E0,-3.599838316E-2,-6.135088697E0,2.772186576E0,6.732431033E0
1.801593125E0,-1.681279153E0,-6.284555224E0,3.997986925E0,7.635851845E0
1.811537125E0,-2.171519361E0,-2.959612057E0,3.597325183E0,5.139605854E0
1.821480125E0,-1.035515872E0,-1.602178019E-1,1.105837119E0,1.523429880E0
1.831423125E0,-6.894948989E-2,7.642012650E-1,-6.253293085E-1,9.898456191E-1
1.841366125E0,3.552931222E-1,1.556535823E0,-1.074711659E-1,1.600183434E0
1.851309125E0,2.887273594E-1,1.656568235E0,3.755660401E-1,1.722971751E0
1.861252125E0,5.945136049E-1,1.196706358E0,3.643856156E-1,1.385037693E0
1.871195125E0,8.553997028E-1,8.695686758E-1,3.523064375E-1,1.269637019E0
1.881138125E0,8.917421215E-1,1.050582100E0,4.146448096E-1,1.439047282E0
1.891081125E0,4.631813407E-1,3.449960146E0,6.230535722E-1,3.536234963E0
1.901024125E0,9.076132920E-1,2.849614820E0,8.321640372E-2,2.991820764E0
1.910967125E0,7.260864821E-1,5.429397011E-1,1.487319993E0,1.741868497E0
1.920910125E0,-8.111330643E-1,-5.270738661E-1,1.707357734E0,1.962349139E0
1.930853125E0,-1.477334118E0,-1.227240518E0,6.459629631E-1,2.026302923E0
1.940796125E0,-1.275237973E0,-1.995381637E0,3.164969194E-1,2.389131655E0
1.950739125E0,-9.923736531E-1,-2.633378938E0,-1.106573868E-1,2.816333638E0
1.960682125E0,-1.242906963E0,-1.372550259E0,-2.741057571E-1,1.871856271E0
1.970625125E0,-7.436880630E-1,-1.277452898E-1,5.844642878E-2,7.568399958E-1
1.980568125E0,9.651640736E-2,7.803869426E-2,1.427737852E-1,1.891819453E-1
1.990512125E0,2.235975266E-1,2.164148068E-1,-6.044430542E-1,6.798401491E-1
2.000455125E0,6.066126636E-1,8.407471651E-1,-1.226750522E0,1.606160503E0
2.010398125E0,3.945905775E-1,1.126625140E0,-8.464265656E-1,1.463360468E0
2.020341125E0,-2.554728918E-2,6.302918404E-1,-7.183690345E-1,9.560201556E-1
2.030284125E0,-7.450807236E-2,5.223335284E-1,-2.952773555E-1,6.046259045E-1
2.040227125E0,3.276114531E-2,2.496603209E-1,-3.071331882E-1,3.971578575E-1
2.050170125E0,-3.196599707E-3,2.183414644E-1,-3.477654898E-1,4.106385871E-1
2.060113125E0,-2.611392823E-1,2.871058899E-1,-1.881610608E-1,4.313097513E-1
2.070056125E0,-1.145457560E0,3.940022891E0,1.226593816E-1,4.104984620E0
2.079999125E0,-3.541881592E0,1.634363316E1,-3.158665895E-2,1.672304601E1
2.089942125E0,1.257451035E-2,6.298983228E-1,-9.740139075E-1,1.160014270E0
2.099885125E0,-8.862964634E-1,2.326510044E0,2.966285191E-2,2.489789206E0
2.109828125E0,-1.263085558E-1,1.182003534E0,8.878179089E-1,1.483680170E0
2.119771125E0,8.567545027E-1,1.866191500E-1,5.955810142E-1,1.059986665E0
2.129714125E0,1.392136093E0,-2.575400287E-1,2.180813364E-1,1.432455667E0
2.139657125E0,1.628209677E0,-8.080852032E-1,6.356053515E-1,1.925633042E0
2.149600125E0,1.594245979E0,-9.391218907E-1,1.087289751E0,2.146105582E0
2.159543125E0,2.038297861E0,-1.833980359E0,8.938943354E-1,2.883953746E0
2.169487125E0,1.911158343E0,-2.146410540E0,2.899740954E-1,2.888544511E0
2.179430125E0,1.285270918E0,-1.447377078E0,-1.769261476E-1,1.943739849E0
2.189373125E0,1.179430760E0,-1.042983643E0,-3.930825806E-1,1.622770998E0
2.199316125E0,7.945591316E-1,-1.402913681E0,-7.202203361E-1,1.765844937E0
2.209259125E0,2.705072527E-1,-1.754989153E0,-1.006867146E0,2.041309029E0
2.219202125E0,5.906072263E-1,-1.738222262E0,1.238229775E-1,1.839990668E0
2.229145125E0,1.100868009E0,-1.683978812E0,1.174951208E0,2.329850929E0
2.239088125E0,6.518492089E-1,-1.943629101E0,8.982340658E-1,2.238174683E0
2.249031125E0,1.447090857E-1,-1.364682831E0,6.170963558E-1,1.504695271E0
2.258974125E0,-2.013172960E-1,-1.431194324E0,6.151247478E-1,1.570740049E0
2.268917125E0,-3.679306363E-1,-1.777789786E0,3.948274628E-1,1.857901559E0
2.278860125E0,-6.152168414E-1,-1.573559992E0,2.534475990E-1,1.708455002E0
2.288803125E0,-7.855611438E-1,-1.298514569E0,2.102662403E-2,1.517790669E0
2.298746125E0,-7.665576929E-1,-1.040621953E0,-9.218720198E-2,1.295763569E0
2.308689125E0,-6.778352585E-1,-8.006364352E-1,2.681533098E-2,1.049380008E0
2.318632125E0,-6.407694662E-1,-5.100444353E-1,3.840229777E-1,9.045465616E-1
2.328575125E0,-5.950840008E-1,-1.008463436E-1,7.107735745E-1,9.324666360E-1
2.338518125E0,-3.045535429E-1,2.992464638E-1,8.822103560E-1,9.801002085E-1
2.348461125E0,-1.160141672E-1,5.244829649E-1,8.004031312E-1,9.639433801E-1
2.358405125E0,-2.828692898E-2,4.877776533E-1,7.162792397E-1,8.670542882E-1
2.368348125E0,5.760545298E-2,3.476994163E-1,7.685252810E-1,8.454847011E-1
2.378291125E0,-1.418873656E-1,5.537424320E-1,1.098684804E0,1.238495460E0
2.388234125E0,-2.404513948E-1,9.378659087E-1,1.346523718E0,1.658473834E0
2.398177125E0,-2.889749524E-1,1.102358610E0,1.366702459E0,1.779487746E0
2.408120125E0,-3.816335861E-1,1.114773418E0,1.404841508E0,1.833560370E0
2.418063125E0,-2.721642074E-1,1.008715451E0,1.232485471E0,1.615735329E0
2.428006125E0,-1.636539182E-1,1.198278090E0,8.930218577E-1,1.503376541E0
2.437949125E0,1.402277796E-1,1.510272653E0,6.187652242E-1,1.638126283E0
2.447892125E0,6.651658040E-1,1.426279739E0,3.160408366E-1,1.605179508E0
2.457835125E0,6.496578187E-1,1.542185002E0,4.040823627E-1,1.721531997E0
2.467778125E0,7.499495539E-1,1.672850391E0,5.227364381E-1,1.906333168E0
2.477721125E0,9.748385842E-1,1.867718208E0,1.718297509E-1,2.113813387E0
2.487664125E0,1.131406262E0,1.758166530E0,1.163128138E-2,2.090780946E0
2.497607125E0,1.114159461E0,2.013141970E0,6.521638622E-1,2.391528716E0
2.507550125E0,2.090500925E0,3.241721501E0,6.868583894E-1,3.918000364E0
2.517493125E0,4.273864406E0,3.466616524E0,3.175686409E-1,5.512186221E0
2.527436125E0,5.475076044E0,3.088584092E0,3.862453582E-1,6.298015153E0
2.537379125E0,5.389849952E0,2.915346295E0,2.440236050E-1,6.132640056E0
2.547323125E0,4.685828523E0,2.568029872E0,-3.964277726E-1,5.358070674E0
2.557266125E0,4.140672728E0,2.148762290E0,-7.853763717E-1,4.730662328E0
2.567209125E0,3.682225000E0,7.667611760E-1,-1.248754325E0,3.963091094E0
2.577152125E0,2.823429819E0,-9.763171989E-1,-1.298854877E0,3.257602678E0
2.587095125E0,1.797918826E0,-2.607552956E0,-1.210526983E0,3.390755093E0
2.597038125E0,6.378873005E-1,-1.862117161E0,-1.941725248E0,2.764900986E0
2.606981125E0,1.412067643E0,-4.792083834E0,-1.252440410E0,5.150398963E0
2.616924125E0,1.180246227E0,-8.890812437E0,3.444894411E-1,8.975421991E0
2.626867125E0,-3.893431765E-1,-1.204001929E1,1.197817768E0,1.210571849E1
2.636810125E0,-1.795347366E0,-1.341625388E1,1.389896463E0,1.360701850E1
2.646753125E0,-3.043426923E0,-1.346115348E1,1.693011152E0,1.390436576E1
2.656696250E0,-4.719357920E0,-1.296861678E1,2.415412719E0,1.401040966E1
2.666639250E0,-6.306757686E0,-1.163015637E1,3.310385939E0,1.363797583E1
2.676582250E0,-6.821578712E0,-1.004770218E1,3.642542871E0,1.267905256E1
2.686525250E0,-5.409882513E0,-8.737834073E0,3.390646575E0,1.082187864E1
2.696468250E0,-2.952513829E0,-8.118701643E0,2.382424775E0,8.961395097E0
2.706411250E0,-1.156521369E0,-7.604509778E0,7.329536714E-1,7.726793107E0
2.716354250E0,-1.279308293E-1,-6.610988901E0,-6.200750736E-1,6.641237358E0
2.726297250E0,7.674521707E-1,-5.329682103E0,-1.767316253E0,5.667265734E0
2.736241250E0,1.399552555E0,-3.647718242E0,-2.976072553E0,4.911374916E0
2.746184250E0,1.509084353E0,-1.367254436E0,-3.909815590E0,4.408330549E0
2.756127250E0,1.368884055E0,1.103616346E0,-4.105315492E0,4.466030439E0
2.766070250E0,1.283788941E0,3.299232960E0,-3.635155499E0,5.074190346E0
2.776013250E0,1.275673444E0,5.137347885E0,-2.599232953E0,5.897092332E0
2.785956250E0,1.225379934E0,6.467647918E0,-1.147731834E0,6.682014212E0
2.795899250E0,1.344821447E0,7.457887337E0,3.162853233E-1,7.584765301E0
2.805842250E0,1.573219684E0,8.213915364E0,1.344471930E0,8.470598004E0
2.815785250E0,1.981687312E0,9.004648955E0,1.801219579E0,9.394422780E0
2.825728250E0,2.506860979E0,1.017247825E1,1.782649407E0,1.062739407E1
2.835671250E0,3.018279510E0,1.156749644E1,1.491879067E0,1.204751793E1
2.845614250E0,3.659964650E0,1.275317963E1,7.342132348E-1,1.328826553E1
2.855557250E0,4.794050837E0,1.326134711E1,-9.789761106E-2,1.410162524E1
2.865500250E0,5.588405609E0,1.368416629E1,-5.085768207E-1,1.479004174E1
2.875443250E0,5.371757498E0,1.478065254E1,-9.618927026E-1,1.575591018E1
2.885386250E0,5.303078442E0,1.494366823E1,-9.228081590E-1,1.588355867E1
2.895329250E0,4.800636264E0,1.451079418E1,-5.769535393E-1,1.529516694E1
2.905272250E0,3.296329232E0,1.350599461E1,4.163521600E-1,1.390866729E1
2.915215250E0,1.143361479E0,1.139093158E1,2.221864765E0,1.166178720E1
2.925159250E0,-5.752321921E-1,9.128785928E0,2.808242261E0,9.568273052E0
2.935102250E0,-2.003382090E0,7.111029335E0,3.094340676E0,8.009695514E0
2.945045250E0,-2.765068468E0,4.697282926E0,4.141966424E0,6.845871484E0
2.954988250E0,-4.098114061E0,1.707129693E0,5.452347332E0,7.031139458E0
2.964931250E0,-7.140008136E0,-2.227261745E0,5.949424982E0,9.556990566E0
2.974874250E0,-1.111065933E1,-6.622314373E0,6.297205090E0,1.438598590E1
2.984817250E0,-1.427595246E1,-1.078923087E1,6.998807234E0,1.921441188E1
2.994760250E0,-1.242214770E1,-1.387597835E1,9.390491513E0,2.085746532E1
3.004703250E0,-4.340168908E0,-1.391938106E1,9.278548908E0,1.728229456E1
3.014646250E0,2.067619601E0,-1.365096813E1,4.341954356E0,1.447330472E1
3.024589250E0,6.108438258E0,-1.644083143E1,-1.016075488E0,1.756833417E1
3.034532250E0,8.858630531E0,-2.072662065E1,-7.396221431E0,2.372282086E1
3.044475250E0,6.083060757E0,-2.223995022E1,-7.424519032E0,2.422276815E1
3.054418250E0,-1.313146495E-1,-1.756963641E1,-3.091829297E0,1.784008900E1
3.064361250E0,-3.718905753E0,-1.278625616E1,-7.952552426E-1,1.333982899E1
3.074304250E0,-6.177425462E0,-1.059480042E1,1.385605338E0,1.234221550E1
3.084247250E0,-6.902067389E0,-9.856894670E0,4.441525714E0,1.282669316E1
3.094190250E0,-6.204370601E0,-9.073706326E0,6.058925205E0,1.255137186E1
3.104133250E0,-5.217817851E0,-7.289598039E0,6.791293643E0,1.124657868E1
3.114077250E0,-4.495921192E0,-4.999223787E0,6.925544545E0,9.652394163E0
3.124020250E0,-3.670502210E0,-2.565483994E0,5.366190364E0,6.989298507E0
3.133963250E0,-2.650877316E0,-1.307571906E-1,2.947728760E0,3.966529066E0
3.143906250E0,-1.510866876E0,2.202442653E0,1.221059427E0,2.936742836E0
3.153849250E0,-9.493568569E-2,4.343012409E0,4.927670094E-1,4.371909068E0
3.163792250E0,1.267485880E0,6.379330988E0,3.045510578E-1,6.511154710E0
3.173735250E0,2.237087991E0,8.251654463E0,2.044777526E-1,8.551969084E0
3.183678250E0,3.040616166E0,9.925139862E0,-2.464363854E-2,1.038047953E1
3.193621250E0,3.726931057E0,1.138004757E1,-6.593384689E-1,1.199292396E1
3.203564250E0,4.401576659E0,1.248294003E1,-1.108806335E0,1.328258711E1
3.213507250E0,5.400700631E0,1.324432235E1,-1.006484154E0,1.433850244E1
3.223450250E0,6.037144911E0,1.352905837E1,-1.130673752E0,1.485802686E1
3.233393250E0,5.828363060E0,1.326864911E1,-2.181124874E0,1.465551674E1
3.243336250E0,6.059201778E0,1.207747539E1,-2.952691877E0,1.383104216E1
3.253279250E0,6.214530723E0,1.014061327E1,-3.081796060E0,1.228616688E1
3.263222250E0,5.481340166E0,8.860654837E0,-3.162295262E0,1.088836101E1
3.273165250E0,4.888819585E0,8.164398803E0,-3.155161074E0,1.002561749E1
3.283108250E0,4.395903983E0,7.890294782E0,-2.895545284E0,9.484983187E0
3.293051250E0,3.740662658E0,7.969980052E0,-2.292864581E0,9.097822110E0
3.302994250E0,3.022691819E0,8.434832527E0,-1.399267942E0,9.068683276E0
3.312937250E0,2.194955586E0,9.020387321E0,-4.711299726E-1,9.295546293E0
3.322881250E0,1.359989563E0,9.439163736E0,1.395642668E-1,9.537654944E0
3.332824250E0,8.576197444E-1,9.604642278E0,5.350938340E-1,9.657690735E0
3.342767250E0,7.205124776E-1,9.082875345E0,4.924155917E-1,9.124704701E0
3.352710250E0,7.245613090E-1,7.530128517E0,1.218340471E-2,7.564917251E0
3.362653250E0,7.242959185E-1,5.015111257E0,4.796544090E-2,5.067370736E0
3.372596250E0,7.543862019E-1,1.203666299E0,7.404644930E-1,1.601935943E0
3.382539250E0,8.334517403E-1,-3.640759470E0,1.508772258E0,4.028171428E0
3.392482250E0,1.671901681E-1,-9.850981965E0,1.954177039E0,1.004433204E1
3.402425250E0,-9.817759401E-1,-1.741231824E1,2.415570740E0,1.760646735E1
3.412368250E0,-2.102961342E0,-2.555206343E1,2.451546173E0,2.575539692E1
3.422311250E0,-1.308355433E0,-2.653975873E1,1.339640814E0,2.660573669E1
3.432254250E0,-4.153790663E0,-1.465654539E1,2.066486411E-1,1.523518963E1
3.442197250E0,-7.410081671E0,-1.005477731E1,1.278966596E0,1.255562076E1
3.452140250E0,-5.770195543E0,-1.286793708E1,3.656448135E0,1.456875335E1
3.462083250E0,-2.967870664E0,-1.565212624E1,4.750326528E0,1.662416657E1
3.472026250E0,-4.942784415E-1,-1.677336141E1,4.501347408E0,1.737389112E1
3.481969250E0,2.274060228E0,-1.668764006E1,3.919467589E0,1.729193184E1
3.491912250E0,3.932363039E0,-1.557987570E1,1.722247669E0,1.616051184E1
3.501855250E0,3.151583163E0,-1.376651613E1,-1.381665484E0,1.419008254E1
3.511798250E0,1.499785087E0,-1.165342829E1,-3.364376789E0,1.222173381E1
3.521741250E0,3.235536316E-1,-9.370355456E0,-3.616684145E0,1.004931105E1
3.531685250E0,-1.292828882E-1,-6.951696802E0,-3.393535977E0,7.736852649E0
3.541628250E0,2.309821214E-1,-4.807203564E0,-3.222132744E0,5.791778506E0
3.551571250E0,6.221702041E-1,-2.846647359E0,-2.979377107E0,4.167395457E0
3.561514250E0,8.440688952E-1,-1.012830137E0,-2.818932141E0,3.112017931E0
3.571457250E0,7.795939871E-1,8.424025118E-1,-2.589587971E0,2.832556202E0
3.581400250E0,4.678887878E-1,2.785462679E0,-2.224688970E0,3.595408637E0
3.591343250E0,-1.481514877E-1,4.686874883E0,-1.671958106E0,4.978372117E0
3.601286250E0,-9.077100635E-1,6.552179945E0,-8.793680976E-1,6.672951959E0
3.611229250E0,-1.401238600E0,8.450184392E0,1.707280990E-1,8.567276927E0
3.621172250E0,-1.498437012E0,1.031126776E1,1.602857466E0,1.054213965E1
3.631115250E0,-7.553104274E-1,1.193466065E1,2.783102158E0,1.227812186E1
3.641058250E0,6.663356857E-1,1.334208780E1,3.036210582E0,1.369941184E1
3.651001250E0,1.925506825E0,1.475733033E1,2.827423468E0,1.514862035E1
3.660944500E0,3.220847233E0,1.588177446E1,2.467482321E0,1.639186036E1
3.670887500E0,4.513786190E0,1.665521374E1,1.936120691E0,1.736430171E1
3.680830500E0,5.668369206E0,1.684560376E1,1.030057204E0,1.780353317E1
3.690773500E0,6.006175718E0,1.594077170E1,-1.039161319E-1,1.703505643E1
3.700716500E0,5.358840998E0,1.402528232E1,-9.101840204E-1,1.504174711E1
3.710659500E0,4.165809908E0,1.256267968E1,-1.241887794E0,1.329350135E1
3.720602500E0,2.986249632E0,1.151609006E1,-1.590115798E0,1.200276990E1
3.730545500E0,2.125720898E0,1.060390454E1,-1.731900253E0,1.095266905E1
3.740488500E0,1.441216159E0,9.864872611E0,-1.629372835E0,1.010186475E1
3.750432500E0,4.192305981E-1,9.346796440E0,-1.248010998E0,9.439061894E0
3.760375500E0,-5.171917793E-1,8.829182199E0,5.539301276E-2,8.844490603E0
3.770318500E0,-6.979185440E-1,7.775277711E0,1.714403045E0,7.992572275E0
3.780261500E0,6.461977288E-2,5.833225604E0,2.538687959E0,6.362046307E0
3.790204500E0,6.395020822E-1,2.877698413E0,1.886153895E0,3.499669639E0
3.800147500E0,-1.134700291E0,-1.206590492E0,-1.423906647E-2,1.656384048E0
3.810090500E0,-4.654541827E0,-5.695385681E0,-1.183640901E-1,7.356370554E0
3.820033500E0,-8.365469931E0,-1.101962052E1,2.047506056E0,1.398590021E1
3.829976500E0,-1.413140344E1,-1.757611980E1,7.098071321E0,2.364316322E1
3.839919500E0,-1.505751586E1,-2.427901465E1,1.366840219E1,3.167056291E1
3.849862500E0,-4.074352438E0,-2.062479255E1,1.084751591E1,2.365694438E1
3.859805500E0,5.191965557E0,-1.017793020E1,2.701776159E0,1.174079912E1
3.869748500E0,7.927336308E0,-8.619938418E0,-4.334340404E0,1.248729378E1
3.879691500E0,7.269428653E0,-1.451458084E1,-6.491847789E0,1.748318442E1
3.889634500E0,1.764880449E0,-1.944288550E1,-2.475305895E0,1.967911936E1
3.899577500E0,-2.423130020E0,-2.050940126E1,2.344289088E0,2.078467682E1
3.909520500E0,-7.169200360E0,-1.895464884E1,5.536934908E0,2.100794599E1
3.919463500E0,-9.631905506E0,-1.523749784E1,4.216816632E0,1.851314361E1
3.929406500E0,-6.348977507E0,-1.242285404E1,2.058622637E-1,1.395274873E1
3.939349500E0,-3.067328879E0,-9.960547092E0,7.357668400E-1,1.044807914E1
3.949292500E0,-1.767592680E0,-7.306763710E0,3.874765041E0,8.457362705E0
3.959235500E0,-8.346065654E-1,-4.834445157E0,4.641615679E0,6.753741497E0
3.969179500E0,-8.600230962E-3,-2.209339444E0,3.925059282E0,4.504147545E0
3.979122500E0,6.995835386E-1,4.614166510E-1,3.515554796E0,3.614062531E0
3.989065500E0,1.108611038E0,3.117916650E0,3.193077929E0,4.598496420E0
3.999008500E0,1.479958202E0,5.652851865E0,2.588188732E0,6.390910061E0
4.008951500E0,1.847106919E0,7.880569693E0,1.715750828E0,8.273994414E0
4.018894500E0,2.323084745E0,9.598814943E0,6.002383214E-1,9.894152671E0
4.028837500E0,2.989608858E0,1.101113270E1,-6.681771201E-1,1.142931604E1
4.038780500E0,3.896150063E0,1.225197501E1,-1.284386526E0,1.292054665E1
4.048723500E0,4.775457276E0,1.346882503E1,-1.300945256E0,1.434944941E1
4.058666500E0,5.929412302E0,1.443319929E1,-1.539396465E0,1.567944238E1
4.068609500E0,7.147192610E0,1.482409735E1,-2.377454495E0,1.662794378E1
4.078552500E0,7.888854613E0,1.450527207E1,-3.508391372E0,1.688033634E1
4.088495500E0,7.529270731E0,1.348835005E1,-4.053462383E0,1.597047470E1
4.098438500E0,6.781843373E0,1.082803299E1,-3.979787466E0,1.338201802E1
4.108381500E0,5.755797944E0,7.518123014E0,-3.545531716E0,1.011049844E1
4.118324500E0,4.319576184E0,6.188290173E0,-3.319926256E0,8.244730682E0
4.128267500E0,3.291883010E0,5.763243788E0,-3.109258093E0,7.329321838E0
4.138210500E0,2.548943683E0,6.267432822E0,-2.537245451E0,7.226025363E0
4.148153500E0,2.073626007E0,7.509691329E0,-1.715585936E0,7.977382013E0
4.158096500E0,1.346604117E0,9.034676746E0,-8.952483313E-1,9.178245809E0
4.168039500E0,5.808136518E-1,1.037993980E1,-7.637121454E-3,1.039617974E1
4.177982500E0,3.191556484E-2,1.134260902E1,1.014966125E0,1.138797410E1
4.187926500E0,-3.424006695E-1,1.197131100E1,1.953902659E0,1.213454823E1
4.197869500E0,-6.500652234E-1,1.205913618E1,2.387174322E0,1.231031890E1
4.207812500E0,-8.447165474E-1,1.121806800E1,2.847001115E0,1.160448237E1
4.217755500E0,-1.506772217E0,9.514850096E0,3.987263716E0,1.042597750E1
4.227698500E0,-1.915404299E0,5.775887808E0,5.714530050E0,8.347784574E0
4.237641500E0,-2.053363359E0,6.203603446E-2,6.975946959E0,7.272137618E0
4.247584500E0,-2.281738060E0,-7.412709410E0,6.744763255E0,1.027844447E1
4.257527500E0,-3.199677097E0,-1.627911615E1,5.117964950E0,1.736205983E1
4.267470500E0,-7.869613180E0,-2.769992583E1,2.755113875E0,2.892762270E1
4.277413500E0,-1.071562845E1,-4.389342939E1,1.599018622E0,4.521078077E1
4.287356500E0,6.439371952E-1,-4.672860861E1,-6.222814474E0,4.714552935E1
4.297299500E0,7.199807611E0,-2.445742958E1,-1.300857899E1,2.862212813E1
4.307242500E0,6.074905061E0,-1.404700239E1,-7.317456513E0,1.696372357E1
4.317185500E0,4.162345432E0,-1.401284997E1,-1.583227193E-1,1.461882861E1
4.327128500E0,-6.753107232E-1,-1.418539195E1,5.246752213E0,1.513967629E1
4.337071500E0,-3.571729289E0,-1.436488042E1,9.266592522E0,1.746358430E1
4.347014500E0,-3.538553649E0,-1.462864715E1,1.128945783E1,1.881410475E1
4.356957500E0,-1.501708529E0,-1.361190172E1,9.207423377E0,1.650198903E1
4.366900500E0,2.572917413E-1,-1.107374702E1,3.889518151E0,1.173977954E1
4.376843500E0,8.705615330E-1,-7.853177826E0,-1.712640694E0,8.084764530E0
4.386786500E0,4.938644587E-1,-4.694437087E0,-4.877961305E0,6.787941379E0
4.396729500E0,3.231719546E-1,-1.741478577E0,-6.105013543E0,6.356758459E0
4.406672500E0,5.976053202E-1,1.317975272E0,-6.521014870E0,6.679657617E0
4.416615500E0,1.048241898E0,4.061263738E0,-6.754464371E0,7.950815251E0
4.426559500E0,1.279295209E0,6.187856895E0,-6.293966317E0,8.918530214E0
4.436502500E0,1.328006901E0,7.776502703E0,-4.195553232E0,8.935337908E0
4.446445500E0,1.473341054E0,9.167800305E0,-9.130118070E-1,9.330213655E0
4.456388500E0,1.412728671E0,1.080521715E1,2.982871696E0,1.129805486E1
4.466331500E0,9.696445026E-1,1.275914379E1,5.651715751E0,1.398848997E1
4.476274500E0,7.498986831E-1,1.489169701E1,6.274818440E0,1.617709289E1
4.486217500E0,1.166418951E0,1.674083569E1,5.679011139E0,1.771629985E1
4.496160500E0,1.850327420E0,1.811264160E1,4.452587476E0,1.874345306E1
4.506103500E0,2.457833245E0,1.882626971E1,2.536093549E0,1.915466382E1
4.516046500E0,3.052156231E0,1.841189508E1,8.254028287E-1,1.868140326E1
4.525989500E0,3.407923343E0,1.715173240E1,-1.598640454E-1,1.748775064E1
4.535932500E0,3.325944795E0,1.566681912E1,-7.229690391E-1,1.603227415E1
4.545875500E0,2.767729828E0,1.433385393E1,-1.433043798E0,1.466878697E1
4.555818500E0,1.971722779E0,1.256248789E1,-2.124340809E0,1.289250234E1
4.565761500E0,1.186449611E0,1.072005597E1,-2.213990466E0,1.101040491E1
4.575704500E0,5.526685908E-1,9.149809007E0,-2.133948369E0,9.411598328E0
4.585647500E0,-3.107195780E-2,7.867673074E0,-1.959470962E0,8.108068298E0
4.595590500E0,-5.041780700E-1,6.882133647E0,-1.235671034E0,7.010338220E0
4.605533500E0,-1.101833384E0,5.904348797E0,5.823850179E-1,6.034446439E0
4.615476500E0,-1.853268423E0,4.201143755E0,2.089786103E0,5.044939906E0
4.625419500E0,-3.010912311E0,1.589878401E0,3.927656615E0,5.198056633E0
4.635362500E0,-6.346769598E0,-1.215624440E0,4.327659960E0,7.777394669E0
4.645305500E0,-8.726043747E0,-5.098190836E0,3.678859928E0,1.075497093E1
4.655248042E0,-9.628396007E0,-9.226711587E0,5.607635347E0,1.446664407E1
4.665191042E0,-1.010094225E1,-1.202035978E1,7.810358666E0,1.753624207E1
4.675135042E0,-7.304410205E0,-1.476137778E1,7.718094281E0,1.818850356E1
4.685078042E0,9.354586101E-1,-1.771196465E1,1.502021501E0,1.780013605E1
4.695021042E0,9.041560673E0,-1.842513785E1,-6.797437897E0,2.162037665E1
4.704964042E0,1.097193180E1,-1.813944407E1,-7.570838002E0,2.251089306E1
4.714907042E0,5.086979969E0,-1.620919749E1,-2.709160607E0,1.720334269E1
4.724850042E0,-2.534410720E0,-1.449402904E1,3.198262070E0,1.505752290E1
4.734793042E0,-6.983466479E0,-1.355007326E1,7.475472838E0,1.697810306E1
4.744736042E0,-7.797880708E0,-1.409456949E1,8.833819626E0,1.837117856E1
4.754679042E0,-6.095528190E0,-1.461091488E1,6.601860813E0,1.715280921E1
4.764622042E0,-4.693060360E0,-1.286466732E1,4.563969333E0,1.443448291E1
4.774565042E0,-3.655033986E0,-1.025901938E1,3.873941168E0,1.155915967E1
4.784508042E0,-2.806602410E0,-7.674753549E0,3.689277912E0,8.966026469E0
4.794451042E0,-2.118943244E0,-5.375481005E0,3.598630282E0,6.807044616E0
4.804394042E0,-1.193908246E0,-3.298676890E0,3.694686002E0,5.094839622E0
4.814337042E0,-4.689912803E-1,-1.104457760E0,3.626306323E0,3.819669791E0
4.824280042E0,-1.106578253E-1,9.658267093E-1,2.761197318E0,2.927332748E0
4.834223042E0,3.612696344E-1,2.648593394E0,1.938504016E0,3.302023703E0
4.844166042E0,1.376958475E0,4.027555125E0,1.215834939E0,4.426677030E0
4.854109042E0,2.521579590E0,5.434058411E0,2.070557535E-2,5.990641298E0
4.864052042E0,3.742799816E0,7.111980677E0,-1.031898053E0,8.102692960E0
4.873995042E0,4.736753971E0,9.262302420E0,-1.020998697E0,1.045320633E1
4.883938042E0,5.639536586E0,1.159503566E1,-3.641212483E-1,1.289890728E1
4.893881042E0,6.181071786E0,1.384976294E1,-5.198988209E-1,1.517537073E1
4.903824042E0,6.326607814E0,1.561875618E1,-1.720448481E0,1.693905115E1
4.913767042E0,5.902692280E0,1.637081687E1,-3.327361575E0,1.771769613E1
4.923711042E0,4.991303734E0,1.529189097E1,-4.346752288E0,1.666281183E1
4.933654042E0,4.411951666E0,1.207308530E1,-4.149085409E0,1.350702098E1
4.943597042E0,3.626314509E0,1.023446693E1,-3.712175024E0,1.147496029E1
4.953540042E0,3.309214742E0,9.393177724E0,-3.489812429E0,1.055279493E1
4.963483042E0,3.159588586E0,8.919299487E0,-3.216025912E0,9.993984492E0
4.973426042E0,2.661575382E0,8.852538317E0,-2.766088514E0,9.648972165E0
4.983369042E0,2.168585520E0,8.665791113E0,-2.298210690E0,9.223907586E0
4.993312042E0,1.688843257E0,8.667221927E0,-1.916045884E0,9.035715761E0
5.003255042E0,1.398829401E0,8.836883567E0,-1.357530078E0,9.049316150E0
5.013198042E0,1.309076102E0,8.948706304E0,-7.763260514E-1,9.077208100E0
5.023141042E0,9.497970061E-1,8.954083988E0,-3.608929275E-1,9.011546933E0
5.033084042E0,2.595109789E-1,8.811098515E0,-3.831563473E-2,8.815002614E0
5.043027042E0,-3.519971929E-1,7.912858018E0,4.246935055E-2,7.920797162E0
5.052970042E0,-7.852084105E-1,6.114151572E0,1.709456885E-1,6.166735289E0
5.062913042E0,-8.643660425E-1,3.299002579E0,7.197611104E-1,3.485484576E0
5.072856042E0,-6.427876326E-1,-4.217047012E-1,1.720094724E0,1.884074483E0
5.082799042E0,-3.607094711E-1,-5.660619891E0,2.477478721E0,6.189558117E0
5.092742042E0,-5.078370383E-1,-1.297097672E1,2.931336091E0,1.330777467E1
5.102685042E0,-2.907503425E0,-2.335633572E1,3.855140031E0,2.385024316E1
5.112628042E0,-5.189504464E0,-3.496677060E1,5.269173362E0,3.574031604E1
5.122571042E0,1.159857205E0,-3.155962377E1,4.196538488E0,3.185853192E1
5.132514042E0,4.170069897E0,-1.407344350E1,-1.692261978E0,1.477548799E1
5.142457042E0,2.647630942E0,-8.864874188E0,-2.849688495E0,9.680736981E0
5.152400042E0,2.115830187E0,-1.146114026E1,-1.141106500E0,1.171053362E1
5.162344042E0,2.385251319E0,-1.458653901E1,-1.808884402E-1,1.478138237E1
5.172287042E0,3.538933426E0,-1.649385983E1,5.992425406E-1,1.687988606E1
5.182230042E0,4.198341184E0,-1.645061616E1,1.362310469E0,1.703246108E1
5.192173042E0,4.028109441E0,-1.429849113E1,2.138655231E0,1.500820977E1
5.202116042E0,3.092656970E0,-1.183611285E1,2.873486663E0,1.256642432E1
5.212059042E0,1.961584438E0,-9.689336273E0,2.132951565E0,1.011338387E1
5.222002042E0,9.660148434E-1,-7.786430106E0,1.576754326E-1,7.847709220E0
5.231945042E0,2.573924596E-1,-5.663945788E0,-1.429401421E0,5.847197721E0
5.241888042E0,-4.561019705E-1,-3.170241044E0,-2.210954445E0,3.891886026E0
5.251831042E0,-8.999073927E-1,-7.959270877E-1,-2.655493693E0,2.914614897E0
5.261774042E0,-1.081616270E0,1.339398885E0,-3.158964688E0,3.597629919E0
5.271717042E0,-1.266178297E0,3.236751367E0,-3.614955123E0,5.014745002E0
5.281660042E0,-1.346428116E0,4.938280013E0,-3.562343631E0,6.236166314E0
5.291603042E0,-1.362417181E0,6.600855677E0,-2.600282528E0,7.224191682E0
5.301546042E0,-1.222136922E0,8.178550819E0,-9.600421319E-1,8.324901985E0
5.311489042E0,-1.208389680E0,1.006378553E1,1.545859392E0,1.025327587E1
5.321432042E0,-1.360051690E0,1.238551138E1,4.409553139E0,1.321721573E1
5.331375042E0,-8.918981691E-1,1.471514267E1,4.788542175E0,1.550035620E1
5.341318042E0,5.546285775E-1,1.632080914E1,3.451441246E0,1.669098171E1
5.351261042E0,2.400286703E0,1.748348587E1,2.356993918E0,1.780418700E1
5.361204042E0,3.985989023E0,1.799191297E1,1.403304859E0,1.848151253E1
5.371147042E0,4.952473544E0,1.696958228E1,2.670844388E-1,1.767950935E1
5.381090042E0,5.313050283E0,1.432513573E1,-7.832199186E-1,1.529874016E1
5.391033042E0,4.777780960E0,1.214683389E1,-1.008414320E0,1.309158752E1
5.400977042E0,3.874248147E0,1.066759475E1,-1.051406484E0,1.139793104E1
5.410920042E0,2.877899557E0,9.523380598E0,-1.071612781E0,1.000626993E1
5.420863042E0,1.883483764E0,8.752269094E0,-9.922075921E-1,9.007452542E0
5.430806042E0,1.426507927E0,8.114853591E0,-9.052600801E-1,8.288864185E0
5.440749042E0,1.409797169E0,7.142675636E0,-6.614054596E-1,7.310458295E0
5.450692042E0,1.446113348E0,5.702996417E0,-6.382311898E-1,5.918002281E0
5.460635042E0,1.107747112E0,3.951222648E0,-9.017575979E-2,4.104557923E0
5.470578042E0,-8.190727061E-1,2.581136405E0,2.151374826E0,3.458548667E0
5.480521042E0,-3.896789456E0,5.351599807E-1,3.582863849E0,5.320552380E0
5.490464042E0,-6.731499431E0,-2.254508016E0,6.040692417E0,9.321258277E0
5.500407042E0,-8.574618988E0,-5.670246747E0,9.069301618E0,1.370868414E1
5.510350042E0,-7.388774418E0,-1.163471252E1,1.107245362E1,1.767935949E1
5.520293042E0,-3.724553871E0,-1.859934980E1,8.048166681E0,2.060536584E1
5.530236042E0,2.596414888E0,-1.924188629E1,-1.662420128E0,1.948730867E1
5.540179042E0,5.463659356E0,-1.565456336E1,-8.945461099E0,1.883980365E1
5.550122042E0,2.857871674E0,-1.405543174E1,-7.007330720E0,1.596324765E1
5.560065042E0,-1.798335732E0,-1.356808502E1,-1.598970237E0,1.377982759E1
5.570008042E0,-4.680183329E0,-1.408144951E1,1.714528760E0,1.493756824E1
5.579951042E0,-6.155980214E0,-1.526634800E1,3.872419723E0,1.691014808E1
5.589894042E0,-6.645980979E0,-1.462347704E1,5.348806007E0,1.692999910E1
5.599837042E0,-6.368357518E0,-1.140902403E1,4.557884721E0,1.383821231E1
5.609780042E0,-5.404194342E0,-8.116363927E0,3.186431399E0,1.025836366E1
5.619723042E0,-4.064125950E0,-6.574714530E0,2.912162486E0,8.259823317E0
5.629666042E0,-2.862907296E0,-5.527703909E0,3.190478842E0,6.995062825E0
5.639610042E0,-2.178621097E0,-4.257246035E0,3.439784237E0,5.890895456E0
5.649553042E0,-1.648492791E0,-2.856813328E0,3.503944564E0,4.812124103E0
5.659496750E0,-1.549234551E0,-1.056334591E0,3.368679755E0,3.855382440E0
5.669439750E0,-1.408602144E0,9.113353372E-1,3.338881760E0,3.736686166E0
5.679382750E0,-7.468531609E-1,2.878024687E0,3.393420494E0,4.511775526E0
5.689325750E0,1.399495983E-1,4.942501118E0,3.103938881E0,5.838008202E0
5.699268750E0,1.223645650E0,6.902832790E0,2.386787236E0,7.405616957E0
5.709211750E0,2.440066334E0,8.857856360E0,1.520328110E0,9.312730028E0
5.719154750E0,3.708580155E0,1.068286651E1,9.166457784E-1,1.134537100E1
5.729097750E0,4.921698478E0,1.221112987E1,4.907410222E-1,1.317481064E1
5.739040750E0,6.157585859E0,1.322982360E1,-9.216381311E-2,1.459289520E1
5.748983750E0,6.912447367E0,1.369930590E1,-8.400150937E-1,1.536745054E1
5.758926750E0,7.314576175E0,1.320368070E1,-1.531951205E0,1.517191758E1
5.768869750E0,7.247234377E0,1.148132134E1,-1.735070613E0,1.368771770E1
5.778812750E0,6.156319352E0,1.013813639E1,-1.687738572E0,1.198042315E1
5.788755750E0,4.997754382E0,9.202791798E0,-1.669690556E0,1.060456469E1
5.798698750E0,4.405055460E0,8.554510998E0,-1.865879551E0,9.801310041E0
5.808641750E0,3.931586528E0,8.406640177E0,-2.211382461E0,9.540397480E0
5.818584750E0,3.396035954E0,8.630924166E0,-2.263156486E0,9.547135143E0
5.828527750E0,2.721083665E0,9.072298316E0,-1.740208415E0,9.630120372E0
5.838470750E0,1.868715305E0,9.656367332E0,-8.913618332E-1,9.875831756E0
5.848413750E0,9.671866255E-1,9.990754977E0,1.689675754E-1,1.003888365E1
5.858356750E0,2.263715918E-1,9.395398496E0,8.592740679E-1,9.437325306E0
5.868299750E0,-7.753716396E-1,8.218644592E0,5.364399362E-1,8.272550267E0
5.878242750E0,-1.677841867E0,7.058664011E0,2.864724903E-1,7.260988737E0
5.888186750E0,-1.870140710E0,5.282710835E0,4.909680404E-1,5.625434175E0
5.898129750E0,-1.596517622E0,2.829621436E0,1.029049290E0,3.408015321E0
5.908072750E0,-1.175145335E0,-1.667210752E-1,2.119066036E0,2.428827565E0
5.918015750E0,-8.912568757E-1,-3.984341277E0,3.585331374E0,5.433591381E0
5.927958750E0,-1.107477847E0,-9.447429360E0,4.240749285E0,1.041462353E1
5.937901750E0,-2.327911914E0,-1.850728889E1,2.196092577E0,1.878195247E1
5.947844750E0,-2.137637962E0,-3.119083520E1,-2.789116019E0,3.138816440E1
5.957787750E0,8.764511409E-1,-3.597745715E1,-8.232084417E0,3.691764894E1
5.967730750E0,3.024775767E0,-2.274326217E1,-6.531107749E0,2.385499133E1
5.977673750E0,2.127367620E0,-1.444444933E1,-5.803417084E-1,1.461179681E1
5.987616750E0,1.349459897E0,-1.258074290E1,4.449507456E0,1.341246623E1
5.997559750E0,2.228634086E0,-1.220320923E1,7.404651947E0,1.444693725E1
6.007502750E0,3.117951441E0,-1.264652875E1,8.184305649E0,1.538308063E1
6.017445750E0,3.454415724E0,-1.361901895E1,7.952755324E0,1.614487480E1
6.027388750E0,2.141471689E0,-1.375902468E1,7.010544934E0,1.558988138E1
6.037331750E0,-3.678818851E-1,-1.198555716E1,3.277577797E0,1.243106728E1
6.047274750E0,-2.325011111E0,-9.480094830E0,-1.627211704E0,9.895741134E0
6.057217750E0,-3.945680365E0,-6.748039450E0,-4.868678851E0,9.209151085E0
6.067160750E0,-4.324886041E0,-4.404078975E0,-5.534696009E0,8.290561549E0
6.077103750E0,-3.668698636E0,-2.233226489E0,-5.052122378E0,6.631032405E0
6.087046750E0,-2.516589284E0,7.724405766E-2,-4.782963347E0,5.405175913E0
6.096989750E0,-1.277862203E0,2.096306918E0,-4.611061639E0,5.223918447E0
6.106932750E0,-1.453576150E-1,3.440873573E0,-4.038419836E0,5.307501724E0
6.116875750E0,6.203151018E-1,4.679263562E0,-2.123121665E0,5.175707093E0
6.126819750E0,8.610082059E-1,6.051810898E0,8.175408087E-1,6.167181143E0
6.136762750E0,1.076174778E0,7.537894204E0,3.063011879E0,8.207316429E0
6.146705750E0,9.453645243E-1,9.380999728E0,3.772927594E0,1.015538540E1
6.156648750E0,8.655665490E-1,1.113747817E1,3.315616273E0,1.165272228E1
6.166591750E0,8.900291066E-1,1.288755215E1,2.270780817E0,1.311631037E1
6.176534750E0,1.102390916E0,1.454897299E1,1.244408528E0,1.464364823E1
6.186477750E0,1.443651963E0,1.599358375E1,7.125675002E-1,1.607440837E1
6.196420750E0,1.807401986E0,1.704903775E1,6.757019750E-1,1.715788342E1
6.206363750E0,2.283530670E0,1.701161791E1,3.551511079E-1,1.716787082E1
6.216306750E0,2.565382545E0,1.534600345E1,-4.248410746E-1,1.556475182E1
6.226249750E0,2.430622935E0,1.315111072E1,-8.770776701E-1,1.340257088E1
6.236192750E0,2.159074439E0,1.115834805E1,-1.105331919E0,1.141893569E1
6.246135750E0,2.274519819E0,9.453732074E0,-1.033601859E0,9.778283251E0
6.256078750E0,2.553165080E0,8.146894578E0,-5.786884081E-1,8.557185488E0
6.266021750E0,2.716206502E0,7.237684704E0,-4.193038344E-3,7.730580523E0
6.275964750E0,2.784701956E0,6.599756400E0,3.615579021E-1,7.172312991E0
6.285907750E0,2.373690643E0,6.623710688E0,1.420008016E-1,7.037621386E0
6.295850750E0,2.212701447E0,6.544369234E0,-5.189490869E-1,6.927779191E0
6.305793750E0,2.159653021E0,5.626056415E0,-8.666509151E-1,6.088324545E0
6.315736750E0,1.416031909E0,3.746132144E0,-1.287154598E0,4.206592370E0
6.325679750E0,-1.537910541E-1,1.521684664E0,-1.778586761E0,2.345750791E0
6.335622750E0,-1.704483828E0,-9.498415911E-1,2.492007297E-1,1.967121036E0
6.345565750E0,-3.754476705E0,-3.761349522E0,3.174613591E0,6.190477931E0
6.355508750E0,-6.317758638E0,-7.665582776E0,5.187692996E0,1.120657807E1
6.365451750E0,-8.951210082E0,-1.329410555E1,5.865778223E0,1.706648055E1
6.375394750E0,-1.003098265E1,-2.046308430E1,5.600343284E0,2.346747274E1
6.385338750E0,-4.605783649E0,-2.512596045E1,5.785546823E0,2.619159567E1
6.395281750E0,4.395074848E0,-2.224972911E1,3.551337417E0,2.295602591E1
6.405224750E0,7.360781457E0,-1.590850091E1,-1.009588002E0,1.755792621E1
6.415167750E0,4.826310511E0,-1.044990174E1,-3.653762509E0,1.207657650E1
6.425110750E0,6.301680987E-1,-8.988474387E0,-1.431252650E0,9.123500851E0
6.435053750E0,-2.417117621E0,-1.017548021E1,2.324988453E0,1.071393609E1
6.444996750E0,-4.099895123E0,-1.064348317E1,3.874034139E0,1.204578825E1
6.454939750E0,-5.700842888E0,-1.061361208E1,4.872546199E0,1.299577153E1
6.464882750E0,-6.470882013E0,-9.914662821E0,5.542945261E0,1.307276157E1
6.474825750E0,-5.509462935E0,-8.758515674E0,5.290419804E0,1.162128738E1
6.484768750E0,-3.973748169E0,-6.994003746E0,4.369662849E0,9.154273118E0
6.494711750E0,-2.711641581E0,-4.678311051E0,2.816205584E0,6.096770312E0
6.504654750E0,-2.083337794E0,-2.281111093E0,1.664792928E0,3.509316126E0
6.514597750E0,-1.373796009E0,-2.528745353E-1,1.010863134E0,1.724269491E0
6.524540750E0,-8.410909814E-1,1.513329577E0,8.558861911E-1,1.931357456E0
6.534483750E0,-9.068489148E-1,3.676654358E0,1.057013453E0,3.931595053E0
6.544426750E0,1.478224356E-1,5.366837651E0,1.598649809E0,5.601828188E0
6.554369750E0,1.339999102E0,6.985092005E0,2.026523323E0,7.395532752E0
6.564312750E0,2.503678924E0,8.561831127E0,1.911289321E0,9.122849734E0
6.574255750E0,3.738229047E0,9.984264568E0,1.284081302E0,1.073819166E1
6.584198750E0,4.883376997E0,1.128355214E1,6.617153621E-1,1.231274896E1
6.594141750E0,5.616546503E0,1.232978742E1,6.813157406E-3,1.354877481E1
6.604084750E0,5.860467197E0,1.305895158E1,-7.088275480E-1,1.433121519E1
6.614027750E0,5.740372989E0,1.306481283E1,-1.475201054E0,1.434633872E1
6.623971750E0,5.851030376E0,1.134951926E1,-1.790703946E0,1.289390416E1
6.633914750E0,5.116893740E0,9.577847997E0,-1.838224268E0,1.101348456E1
6.643857750E0,3.884548017E0,8.734060864E0,-2.014688559E0,9.768956058E0
6.653800750E0,3.189048028E0,8.189790337E0,-2.013456550E0,9.016468287E0
6.663743750E0,2.742211994E0,8.169655450E0,-1.645834501E0,8.773355572E0
6.673686750E0,2.308020418E0,8.622285490E0,-1.246248647E0,9.012430361E0
6.683629750E0,1.969206430E0,9.222802724E0,-8.770572048E-1,9.471382865E0
6.693572750E0,1.560717898E0,9.803930005E0,-4.463828748E-1,9.937411211E0
6.703515750E0,8.815806109E-1,1.026815040E1,5.631380305E-2,1.030607919E1
6.713458750E0,1.398135775E-1,1.053003666E1,4.009283014E-1,1.053859400E1
6.723401750E0,-2.737146697E-1,1.016386063E1,5.337108944E-1,1.018154359E1
6.733344750E0,-1.247950771E-1,8.895601891E0,7.793225301E-1,8.930545920E0
6.743287750E0,4.443698978E-1,6.847518715E0,1.598941439E0,7.045749845E0
6.753230750E0,1.153380317E0,4.161416017E0,2.887013612E0,5.194469850E0
6.763173750E0,1.961523043E0,2.256124771E-1,4.428575885E0,4.848789334E0
6.773116750E0,2.315905242E0,-5.171155316E0,6.009623237E0,8.259530001E0
6.783059750E0,2.828284178E0,-1.274389074E1,7.373924244E0,1.499268826E1
6.793002750E0,2.016176090E0,-2.445150752E1,6.978557156E0,2.550767425E1
6.802945750E0,8.244775799E-1,-3.702196399E1,2.424449152E0,3.711042353E1
6.812888750E0,2.278006513E0,-3.626313106E1,-1.156768355E1,3.813155243E1
6.822831750E0,1.603808808E0,-1.977312688E1,-1.689537994E1,2.605767858E1
6.832774750E0,-7.561943802E-1,-1.222235653E1,-1.090679265E1,1.639865710E1
6.842717750E0,-3.242188693E0,-9.954198185E0,-4.624262313E0,1.144472153E1
6.852660750E0,-1.966833776E0,-1.009574641E1,5.420675889E-2,1.028569245E1
6.862604750E0,6.175679337E-1,-1.121450588E1,3.538377063E0,1.177568021E1
6.872547750E0,2.511451336E0,-1.232597503E1,6.697244688E0,1.425096961E1
6.882490750E0,3.004187136E0,-1.191353817E1,7.660553001E0,1.447900564E1
6.892433750E0,1.676045602E0,-9.801594627E0,5.043677829E0,1.114984628E1
6.902376750E0,-1.572675893E-1,-6.902778996E0,1.175307888E-1,6.905570537E0
6.912319750E0,-1.518691474E0,-4.516222724E0,-4.078460984E0,6.271884525E0
6.922262750E0,-2.246457861E0,-2.684308187E0,-5.544266732E0,6.556750488E0
6.932205750E0,-2.486707966E0,-8.179728448E-1,-4.973775535E0,5.620608433E0
6.942148750E0,-2.239808846E0,1.125907686E0,-4.054083942E0,4.766550996E0
6.952091750E0,-2.000181470E0,2.997151181E0,-3.689636931E0,5.157233929E0
6.962034750E0,-1.910508571E0,4.607900049E0,-3.173857546E0,5.912373262E0
6.971977750E0,-1.570071104E0,5.935317990E0,-1.448350639E0,6.307998295E0
6.981920750E0,-1.198316097E0,7.317406812E0,9.027036774E-1,7.469623675E0
6.991863750E0,-1.097867071E0,9.196457509E0,3.012415922E0,9.739342509E0
7.001806750E0,-8.419380967E-1,1.143957222E1,4.283139845E0,1.224409896E1
7.011749750E0,5.685043126E-2,1.395612146E1,3.848085365E0,1.447702729E1
7.021692750E0,9.183150123E-1,1.641355183E1,2.564242630E0,1.663800848E1
7.031635750E0,1.222013254E0,1.810882454E1,9.965484188E-1,1.817734720E1
7.041578750E0,8.984818415E-1,1.871703086E1,-8.814766766E-1,1.875930476E1
7.051521750E0,5.791287035E-1,1.757024452E1,-2.889220351E0,1.781562451E1
7.061464750E0,9.530030344E-1,1.494451491E1,-3.156142822E0,1.530385501E1
7.071407750E0,8.373841390E-1,1.255830830E1,-2.001248733E0,1.274430524E1
7.081350750E0,7.632477303E-1,1.039547118E1,-8.419967151E-1,1.045740535E1
7.091293750E0,4.849471624E-1,8.673936870E0,-2.651712298E-3,8.687483042E0
7.101236750E0,7.272474468E-5,7.354856474E0,4.325490935E-1,7.367564894E0
7.111180750E0,-5.006144844E-1,6.485041630E0,3.491179508E-1,6.513698116E0
7.121123750E0,-7.791362232E-1,6.353405018E0,2.508291793E-1,6.405913195E0
7.131066750E0,-4.981844547E-1,6.696840060E0,3.303245611E-1,6.723464052E0
7.141009750E0,1.093509726E0,5.831761461E0,4.031327748E-1,5.947076702E0
7.150952750E0,3.285361902E0,3.733956487E0,-3.357164249E-2,4.973646643E0
7.160895750E0,3.856415601E0,1.420409719E0,-1.079671998E0,4.249140699E0
7.170838750E0,2.365672356E0,-1.352493725E0,-1.662868609E0,3.192299639E0
7.180781750E0,6.836313111E-1,-5.222670456E0,-4.320074952E-1,5.284909548E0
7.190724750E0,-2.389889769E0,-9.073795788E0,1.968328178E0,9.587474064E0
7.200667750E0,-6.696752352E0,-1.230574952E1,4.844283097E0,1.482379985E1
7.210610750E0,-9.455940567E0,-1.619895550E1,5.940535460E0,1.967513489E1
7.220553750E0,-7.677853158E0,-2.124315666E1,5.087948853E0,2.315401385E1
7.230496750E0,-3.465621328E-1,-2.235670041E1,2.909547319E0,2.254789622E1
7.240439750E0,3.890335299E0,-1.731163620E1,-1.867425263E-2,1.774338766E1
7.250382750E0,5.315271640E0,-1.407091516E1,3.364753935E-1,1.504513150E1
7.260325750E0,4.224520631E0,-1.184092277E1,6.664019054E-1,1.258960357E1
7.270268750E0,5.217210326E-1,-1.007304050E1,2.313643685E0,1.034849192E1
7.280211750E0,-2.530523492E0,-9.269728968E0,5.334127157E0,1.099019276E1
7.290154750E0,-4.051154779E0,-8.846606902E0,5.554985847E0,1.120411427E1
7.300097750E0,-3.593171614E0,-9.467078344E0,4.944119042E0,1.126857434E1
7.310040750E0,-2.708646052E0,-9.743818290E0,4.301298373E0,1.098999208E1
7.319983750E0,-2.288358132E0,-8.640093185E0,3.413817921E0,9.567755536E0
7.329926750E0,-2.067444185E0,-6.777167355E0,2.628859625E0,7.557461594E0
7.339869750E0,-1.641138017E0,-4.408670794E0,1.919171221E0,5.080642709E0
7.349812750E0,-1.242549991E0,-2.118732744E0,1.007645411E0,2.654865005E0
7.359755750E0,-9.410666746E-1,-7.730837703E-2,2.438739163E-1,9.752217995E-1
7.369699750E0,-6.140975381E-1,1.745606711E0,-1.920484360E-1,1.860414249E0
7.379642750E0,1.957210721E-1,3.406724079E0,-1.532065518E-1,3.415779258E0
7.389585750E0,1.161102954E0,4.937118756E0,-1.338117760E-1,5.073579335E0
7.399528750E0,2.042720987E0,6.377857490E0,-2.410314386E-1,6.701333550E0
7.409471750E0,2.675318677E0,7.935222448E0,-3.357383519E-1,8.380799817E0
7.419414750E0,3.074895176E0,9.513647323E0,-5.318814468E-1,1.001236054E1
7.429357750E0,3.559706537E0,1.126599880E1,-4.288429821E-1,1.182278080E1
7.439300750E0,3.961805524E0,1.291476392E1,-4.013218921E-1,1.351473601E1
7.449243750E0,4.505333455E0,1.399180233E1,-6.099488655E-1,1.471192033E1
7.459186750E0,4.869523188E0,1.422411221E1,-9.326062652E-1,1.506344512E1
7.469129750E0,4.932500040E0,1.309168780E1,-1.204335659E0,1.404180439E1
7.479072750E0,4.242160803E0,1.137071074E1,-1.315599548E0,1.220736634E1
7.489015750E0,3.138869562E0,1.043654553E1,-1.360930672E0,1.098299217E1
7.498958750E0,2.659195565E0,9.849515483E0,-1.347435883E0,1.029076575E1
7.508901750E0,2.409415815E0,9.455017292E0,-1.259285599E0,9.838111444E0
7.518844750E0,1.995832458E0,9.206187276E0,-1.388501464E0,9.521825858E0
7.528787750E0,1.469681282E0,9.202157375E0,-1.466897423E0,9.433528050E0
7.538730750E0,8.861079638E-1,9.354341687E0,-1.138370588E0,9.464923841E0
7.548673750E0,1.711898097E-1,9.591348048E0,-5.911967719E-1,9.611075744E0
7.558616750E0,-4.972900499E-1,9.812827713E0,-9.424425244E-2,9.825872333E0
7.568559750E0,-9.091929904E-1,9.723936002E0,2.116018175E-1,9.768640571E0
7.578502750E0,-1.143392615E0,9.189032714E0,1.552532235E-1,9.261197140E0
7.588445750E0,-8.979516453E-1,7.756059667E0,1.905607581E-3,7.807866697E0
7.598388750E0,5.270957932E-2,5.387524515E0,2.977735502E-1,5.396004798E0
7.608331750E0,1.240058784E0,2.421257157E0,9.942178649E-1,2.896325461E0
7.618275750E0,2.426233430E0,-1.568351292E0,1.819328991E0,3.414131282E0
7.628218750E0,2.917451878E0,-7.057521465E0,3.069413411E0,8.230518415E0
7.638161750E0,2.097140293E0,-1.505275856E1,4.287822880E0,1.579142055E1
7.648104750E0,5.503573692E-1,-2.818152356E1,3.540468612E0,2.840838048E1
7.658047125E0,8.961879788E-1,-4.120938901E1,-2.341144163E0,4.128556469E1
7.667990125E0,2.906089568E0,-3.319458946E1,-8.678178440E0,3.443307868E1
7.677933125E0,1.728298368E0,-1.666398223E1,-5.885013809E0,1.775693404E1
7.687876125E0,-9.258596747E-1,-1.269951856E1,1.543844734E-1,1.273415966E1
7.697819125E0,-1.330007965E0,-1.453010519E1,4.702526125E0,1.532992596E1
7.707762125E0,-4.534101683E-1,-1.522462344E1,7.367949559E0,1.691985284E1
7.717705125E0,-9.920280095E-2,-1.430538149E1,9.264762928E0,1.704375584E1
7.727648125E0,-2.136837917E-1,-1.337879779E1,9.523554261E0,1.642364079E1
7.737591125E0,-1.065623185E0,-1.129026942E1,6.479618338E0,1.306105624E1
7.747534125E0,-1.600079161E0,-8.909758585E0,1.009546779E0,9.108415673E0
7.757477125E0,-1.491965459E0,-7.005250280E0,-4.179923040E0,8.292843242E0
7.767420125E0,-1.139536815E0,-5.356014454E0,-6.815331547E0,8.742664301E0
7.777363125E0,-8.431478857E-1,-3.304173857E0,-7.121608703E0,7.895934001E0
7.787306125E0,-6.664222245E-1,-9.236905038E-1,-6.055310456E0,6.161502045E0
7.797249125E0,-4.596972772E-1,1.578037789E0,-4.939858176E0,5.206123669E0
7.807192125E0,-1.320336378E-1,4.014676632E0,-3.776089768E0,5.513067683E0
7.817135125E0,5.036918740E-1,6.265611999E0,-1.647664679E0,6.498184217E0
7.827078125E0,1.114113560E0,8.314347725E0,9.725807550E-1,8.444852896E0
7.837021125E0,1.335789692E0,1.016498914E1,2.811221418E0,1.063081860E1
7.846964125E0,1.190443990E0,1.192607226E1,3.361610472E0,1.244784244E1
7.856907125E0,9.045847267E-1,1.368275828E1,3.058659212E0,1.404961009E1
7.866850125E0,7.203961180E-1,1.550153237E1,2.504749550E0,1.571910451E1
7.876794125E0,8.066314392E-1,1.712128361E1,1.947836757E0,1.725059636E1
7.886737125E0,1.022064937E0,1.824063949E1,1.580994142E0,1.833753223E1
7.896680125E0,8.776834416E-1,1.881376018E1,1.165492825E0,1.887024838E1
7.906623125E0,6.436990674E-1,1.814599178E1,4.150815600E-1,1.816214907E1
7.916566125E0,1.099011079E0,1.581500628E1,-2.982226163E-1,1.585595111E1
7.926509125E0,1.229125807E0,1.356009539E1,-3.562065303E-1,1.362034582E1
7.936452125E0,8.260441951E-1,1.180421395E1,-2.712797429E-1,1.183619063E1
7.946395125E0,5.169710469E-1,9.978350694E0,-1.771712190E-1,9.993304322E0
7.956338125E0,4.891672441E-1,8.364336741E0,1.406441014E-1,8.379808737E0
7.966281125E0,5.298308283E-1,7.045578527E0,3.861816236E-1,7.076018212E0
7.976224125E0,5.526811624E-1,6.129815093E0,5.485033268E-1,6.179073187E0
7.986167125E0,9.005191576E-1,5.416767025E0,1.160492797E0,5.612400849E0
7.996110125E0,1.482658446E0,4.342221866E0,2.379608610E0,5.168723627E0
8.006053125E0,1.699700659E0,2.570328997E0,2.729605397E0,4.116590714E0
8.015996125E0,1.334350399E0,-5.672383904E-3,1.080465465E0,1.716953344E0
8.025939125E0,-4.827403501E-1,-3.153102270E0,-1.276032609E0,3.435600586E0
8.035882125E0,-3.131583054E0,-7.206074072E0,-2.061616557E0,8.123089239E0
8.045825125E0,-6.050987610E0,-1.148018932E1,-4.635527851E-1,1.298553346E1
8.055768125E0,-8.477949895E0,-1.514699931E1,3.106401143E0,1.763397149E1
8.065711125E0,-5.364546711E0,-1.738328565E1,3.397674928E0,1.850678730E1
8.075654125E0,7.518326497E-1,-1.488189825E1,1.553142246E0,1.498160200E1
8.085597125E0,6.049822844E0,-1.440399011E1,2.100714696E0,1.576351134E1
8.095540125E0,7.491650330E0,-1.841904739E1,1.716544295E0,1.995827287E1
8.105483125E0,4.321825023E0,-1.968231495E1,1.540924342E0,2.021005050E1
8.115426125E0,-8.567042166E-1,-1.561952684E1,1.688897928E0,1.573391042E1
8.125369125E0,-3.528000302E0,-1.226309875E1,2.208873421E0,1.295027023E1
8.135313125E0,-4.095358853E0,-1.122601320E1,3.137107796E0,1.235462593E1
8.145256125E0,-3.806023419E0,-1.070025262E1,4.337033046E0,1.215693530E1
8.155199125E0,-3.803925731E0,-1.004117786E1,5.141547355E0,1.190506669E1
8.165142125E0,-3.689662074E0,-9.100797645E0,5.032663429E0,1.103475533E1
8.175085125E0,-3.446340427E0,-7.784082448E0,4.515684196E0,9.636420791E0
8.185028125E0,-3.216866156E0,-6.125105161E0,3.473801583E0,7.741604391E0
8.194971125E0,-2.916254368E0,-3.833956738E0,2.402452512E0,5.382893449E0
8.204914125E0,-2.182335540E0,-1.351410820E0,1.653846356E0,3.053540140E0
8.214857125E0,-1.471648139E0,1.397735386E0,1.741040035E0,2.674066727E0
8.224800125E0,-4.953024352E-1,3.831127270E0,1.882881208E0,4.297453002E0
8.234743125E0,6.725851898E-1,5.790424570E0,1.767658900E0,6.091469899E0
8.244686125E0,1.895257717E0,7.668245013E0,1.434112085E0,8.028116894E0
8.254629125E0,3.155109327E0,9.630036151E0,8.963553554E-1,1.017328679E1
8.264572125E0,4.159072453E0,1.197082919E1,3.933474594E-1,1.267885473E1
8.274515125E0,5.038436970E0,1.426852415E1,2.000969821E-1,1.513329665E1
8.284458125E0,5.755995580E0,1.587041215E1,-1.893135470E-1,1.688304791E1
8.294401125E0,6.298038318E0,1.651597750E1,-8.699195087E-1,1.769744500E1
8.304344125E0,6.194188845E0,1.604898612E1,-1.499473431E0,1.726807318E1
8.314287125E0,5.617455161E0,1.399051127E1,-2.176443594E0,1.523243627E1
8.324230125E0,4.718950369E0,1.135484607E1,-3.159892641E0,1.269590262E1
8.334173125E0,3.715150964E0,9.751788045E0,-3.768180825E0,1.109499452E1
8.344116125E0,3.224788549E0,8.297960318E0,-3.624904745E0,9.612249531E0
8.354059125E0,2.721337434E0,7.228636723E0,-3.107981645E0,8.325768205E0
8.364002125E0,2.119250808E0,6.729578036E0,-2.657598690E0,7.539315309E0
8.373945125E0,1.451493225E0,6.798378130E0,-2.475650881E0,7.379269954E0
8.383889125E0,8.438576645E-1,7.413073107E0,-2.064686930E0,7.741361687E0
8.393832125E0,3.318930037E-1,8.293542747E0,-1.253217359E0,8.394257442E0
8.403775125E0,9.381813660E-2,9.093351801E0,-2.413625371E-1,9.097038237E0
8.413718125E0,3.314076117E-1,9.476932656E0,8.384217274E-1,9.519718198E0
8.423661125E0,7.314937679E-1,9.390082793E0,1.646685271E0,9.561396884E0
8.433604125E0,6.025829818E-1,9.085530565E0,2.766868533E0,9.516592530E0
8.443547125E0,3.950079225E-2,7.329059143E0,5.557684922E0,9.198072077E0
8.453490125E0,4.575910371E-1,3.248141159E0,6.549373282E0,7.324895967E0
8.463433125E0,2.091929693E0,-1.999326169E0,4.415819015E0,5.279482223E0
8.473376125E0,1.775684788E0,-9.589638907E0,1.277826681E0,9.836008940E0
8.483319125E0,-4.463766476E0,-2.270228255E1,-1.728473200E0,2.320143236E1
8.493262125E0,-1.106203388E1,-4.730951779E1,-3.411268535E0,4.870519295E1
8.503205125E0,-2.061456344E0,-5.065235694E1,-9.235069013E-1,5.070269945E1
8.513148125E0,3.084808545E0,-2.361761972E1,3.943828844E0,2.414253075E1
8.523091125E0,1.260720506E0,-1.314676975E1,8.585040480E0,1.575213925E1
8.533034125E0,-3.329096152E-1,-1.531272811E1,1.316208009E1,2.019482170E1
8.542977125E0,-2.491435440E0,-1.844112531E1,1.095092626E1,2.159178407E1
8.552920125E0,-2.740344393E0,-1.886515720E1,4.415556475E0,1.956785074E1
8.562863125E0,-2.212130320E0,-1.759339248E1,1.577498384E-1,1.773262148E1
8.572806125E0,-5.819314932E-1,-1.431362256E1,-2.183702327E0,1.449092788E1
8.582749125E0,7.783028488E-1,-9.398260708E0,-3.087670757E0,9.923042395E0
8.592692125E0,1.332264259E0,-4.970523899E0,-1.558832610E0,5.376894549E0
8.602635125E0,1.150557647E0,-1.134793115E0,4.792197416E-1,1.685582948E0
8.612578125E0,7.133478843E-1,2.702022911E0,2.132075506E0,3.515044663E0
8.622521125E0,7.705500256E-1,6.261720677E0,2.687781433E0,6.857628031E0
8.632464125E0,1.231597425E0,9.283826020E0,1.751335813E0,9.527509377E0
8.642407125E0,1.639660280E0,1.210867379E1,2.427828624E-1,1.222159606E1
8.652351125E0,2.327323977E0,1.458733306E1,-7.902979732E-1,1.479294743E1
8.662294500E0,3.422101087E0,1.636806868E1,-8.121858555E-1,1.674168731E1
8.672237500E0,4.574663891E0,1.718662741E1,-3.885030413E-1,1.778928459E1
8.682180500E0,5.054910330E0,1.666163282E1,-4.642706770E-1,1.741774020E1
8.692123500E0,4.305126837E0,1.529842582E1,-1.100551820E0,1.593069879E1
8.702066500E0,2.776504160E0,1.337581337E1,-1.539068436E0,1.374736667E1
8.712009500E0,1.496200744E0,1.152362010E1,-1.626555061E0,1.173363193E1
8.721952500E0,6.756307121E-1,1.008601431E1,-1.606872749E0,1.023553621E1
8.731895500E0,3.060146159E-1,9.064299325E0,-1.305192089E0,9.162897664E0
8.741838500E0,3.519507806E-1,8.537244170E0,-6.746938419E-1,8.571092063E0
8.751781500E0,6.515721971E-1,8.482408397E0,-7.064660769E-2,8.507690021E0
8.761724500E0,8.183039434E-1,8.948421544E0,1.652253940E-1,8.987278170E0
8.771667500E0,9.685649604E-1,9.611565966E0,1.806801331E-1,9.661933746E0
8.781610500E0,1.565307524E0,1.024524802E1,1.189031303E-1,1.036481706E1
8.791553500E0,2.252032158E0,1.092106570E1,7.165349822E-2,1.115107435E1
8.801496500E0,2.978334841E0,1.149410102E1,-3.562123775E-2,1.187375701E1
8.811439500E0,3.597435111E0,1.189641986E1,-4.228297786E-1,1.243563951E1
8.821382500E0,3.849808247E0,1.197771604E1,-9.010127357E-1,1.261342654E1
8.831325500E0,3.329968849E0,1.201060663E1,-1.488997559E0,1.255230966E1
8.841268500E0,2.551692751E0,1.175439099E1,-1.149466703E0,1.208296806E1
8.851211500E0,1.546239315E0,1.100881253E1,1.727921807E0,1.125035657E1
8.861154500E0,1.499323157E0,8.434477601E0,3.427519702E0,9.226931973E0
8.871097500E0,2.350766195E0,4.991950436E0,2.430006931E0,6.029146253E0
8.881040500E0,1.490408931E0,9.816241318E-1,1.968634719E0,2.657146472E0
8.890983500E0,-2.734011566E0,-3.450334952E0,4.205784105E0,6.088370099E0
8.900926500E0,-8.385811810E0,-1.009295846E1,5.427872642E0,1.420040322E1
8.910870500E0,-1.343332892E1,-2.368478084E1,5.374220345E0,2.775437648E1
8.920813500E0,-8.729043369E0,-3.650645475E1,4.612348318E0,3.781786871E1
8.930756500E0,6.005024402E0,-2.478549814E1,3.414507893E-1,2.550485884E1
8.940699500E0,8.309424369E0,-1.353466234E1,9.268181795E-1,1.590888462E1
8.950642500E0,7.941318170E0,-1.995901922E1,3.949970174E0,2.184099922E1
8.960585500E0,5.459996660E0,-2.780683632E1,5.469693097E0,2.886086022E1
8.970528500E0,2.987710851E0,-2.721502793E1,4.461148970E0,2.773961088E1
8.980471500E0,2.004546855E0,-2.136443493E1,1.917490147E0,2.154377071E1
8.990414500E0,5.288623832E-1,-1.798206743E1,1.646774002E0,1.806505768E1
9.000357500E0,-1.904620133E0,-1.563869401E1,1.979385994E0,1.587810748E1
9.010300500E0,-4.649808505E0,-1.228326346E1,2.499838473E0,1.336968484E1
9.020243500E0,-7.054439982E0,-8.906977065E0,3.016266899E0,1.175573179E1
9.030186500E0,-7.679817823E0,-5.954044282E0,2.797788025E0,1.011226300E1
9.040129500E0,-6.170794719E0,-3.128428189E0,2.585851600E0,7.385959579E0
9.050072500E0,-3.300800891E0,-6.166684127E-1,1.349876511E0,3.619079033E0
9.060015500E0,-6.242963979E-1,1.725982870E0,-9.984343652E-1,2.089409975E0
9.069958500E0,7.322202113E-1,4.368018027E0,-3.236550808E0,5.485525413E0
9.079901500E0,1.586386444E0,6.691597447E0,-3.242382821E0,7.603100992E0
9.089844500E0,2.345816966E0,8.611197415E0,-1.683281824E0,9.082346385E0
9.099787500E0,2.724920608E0,1.058153075E1,-4.986095472E-1,1.093812584E1
9.109730500E0,2.882015119E0,1.247469078E1,-5.675833762E-2,1.280340356E1
9.119673500E0,2.960026624E0,1.396688150E1,-1.130676091E-1,1.427754604E1
9.129616500E0,2.782750740E0,1.470813537E1,-8.284825572E-1,1.499197556E1
9.139559500E0,2.330878792E0,1.430175388E1,-2.321957987E0,1.467530746E1
9.149502500E0,1.872213402E0,1.286269798E1,-3.512891389E0,1.346456788E1
9.159446500E0,1.137110513E0,1.143491082E1,-3.651449350E0,1.205749925E1
9.169389500E0,2.636831135E-1,1.055825766E1,-3.225530561E0,1.104311464E1
9.179332500E0,-5.347734797E-1,1.011392424E1,-2.317020013E0,1.038970779E1
9.189275500E0,-1.160315773E0,9.863913667E0,-6.411389371E-1,9.952596880E0
9.199218500E0,-1.707930762E0,1.006925619E1,1.625052327E0,1.034155417E1
9.209161500E0,-1.438166398E0,1.031264654E1,2.887548632E0,1.080541245E1
9.219104500E0,-1.133437438E-1,1.050094208E1,2.715646339E0,1.084699804E1
9.229047500E0,1.217024702E0,1.089752481E1,2.016629834E0,1.114917001E1
9.238990500E0,2.355125879E0,1.143898516E1,3.683855496E-2,1.167897070E1
9.248933500E0,3.643320259E0,1.150890851E1,-3.172548355E0,1.248173949E1
9.258876500E0,4.805034832E0,1.115004032E1,-5.207560081E0,1.321099697E1
9.268819500E0,5.251238782E0,1.056095440E1,-3.634712865E0,1.234181527E1
9.278762500E0,4.459859658E0,9.865368454E0,-3.577928799E-1,1.083253704E1
9.288705500E0,3.683496477E0,7.899639802E0,1.702463615E0,8.880925496E0
9.298648500E0,3.401706876E0,4.312140280E0,3.455672291E0,6.489054973E0
9.308591500E0,2.177950567E0,-5.463427806E-1,4.070638579E0,4.648877020E0
9.318534500E0,-5.636515987E-1,-7.005466043E0,3.637228922E0,7.913513242E0
9.328477500E0,-5.254635429E0,-1.826942416E1,4.732599524E0,1.959031779E1
9.338420500E0,-1.250373975E1,-3.584661751E1,6.764585901E0,3.856271667E1
9.348363500E0,-1.021014368E1,-3.870544755E1,4.699206076E0,4.030435760E1
9.358306500E0,8.583872645E-1,-1.739199566E1,4.614053951E-1,1.741927773E1
9.368249500E0,3.489204903E0,-1.162757541E1,2.854436435E0,1.247088081E1
9.378192500E0,1.785477413E0,-1.741522314E1,8.039597002E0,1.926429460E1
9.388135500E0,-8.867845597E-1,-2.085803331E1,7.571353726E0,2.220741628E1
9.398078500E0,-1.691739237E0,-2.118762916E1,2.754506934E0,2.143280009E1
9.408022500E0,-9.316685911E-1,-1.919582894E1,-2.544810578E-2,1.921844174E1
9.417965500E0,-2.027478173E-2,-1.560354874E1,3.740474816E-1,1.560804459E1
9.427908500E0,-8.198512629E-2,-1.121111683E1,1.144165544E0,1.126964848E1
9.437851500E0,-1.678874339E0,-6.542070694E0,2.008908586E0,7.046490028E0
9.447794500E0,-3.153277102E0,-2.402672952E0,2.978213804E0,4.958402087E0
9.457737500E0,-3.173188040E0,9.817282122E-1,3.708987122E0,4.978905310E0
9.467680500E0,-2.136934542E0,3.919859937E0,3.868948231E0,5.907668879E0
9.477623500E0,-4.639194055E-1,6.173589689E0,2.328281166E0,6.614327180E0
9.487566500E0,1.292925069E0,7.911609052E0,-1.440297123E-1,8.017852430E0
9.497509500E0,2.773157798E0,9.578946104E0,-1.873442048E0,1.014674321E1
9.507452500E0,3.972602407E0,1.111469858E1,-2.399332438E0,1.204470384E1
9.517395500E0,4.865745887E0,1.237199262E1,-2.028206152E0,1.344824541E1
9.527338500E0,5.266802316E0,1.326561323E1,-1.634333028E0,1.436616670E1
9.537281500E0,5.114741964E0,1.358055012E1,-1.941928146E0,1.464114107E1
9.547224500E0,4.114279858E0,1.302687376E1,-2.842009932E0,1.395362889E1
9.557167500E0,2.548705701E0,1.209416100E1,-3.227063701E0,1.277413681E1
9.567110500E0,1.453875820E0,1.113777170E1,-2.967889960E0,1.161774867E1
9.577053500E0,8.861010933E-1,1.032667635E1,-2.610968900E0,1.068843198E1
9.586996500E0,5.217647405E-1,9.819611653E0,-2.130161712E0,1.006154066E1
9.596939500E0,1.315421793E-1,9.821929489E0,-1.340078917E0,9.913799158E0
9.606882500E0,1.414568643E-1,1.010351151E1,-5.474286816E-1,1.011931980E1
9.616825500E0,6.350006032E-1,1.044652205E1,-2.368370846E-2,1.046583057E1
9.626768500E0,1.406954691E0,1.076230561E1,1.021677413E-1,1.085436234E1
9.636711500E0,2.818485706E0,1.097513022E1,2.539843369E-1,1.133410134E1
9.646654500E0,4.127769969E0,1.109106882E1,6.984761491E-1,1.185487922E1
9.656598500E0,4.997922197E0,1.092693981E1,1.026889694E0,1.205950838E1
9.666541417E0,4.972357585E0,1.083375975E1,7.642017035E-1,1.194481873E1
9.676484417E0,3.812667611E0,1.103697155E1,7.618343121E-1,1.170177622E1
9.686427417E0,2.533307936E0,1.087451835E1,2.844838815E0,1.152240888E1
9.696370417E0,2.432112513E0,8.638068295E0,4.208964990E0,9.911951444E0
9.706313417E0,2.993985499E0,4.800668131E0,3.069916856E0,6.436983236E0
9.716256417E0,2.448613940E0,-1.351969814E-1,1.513893395E0,2.881989186E0
9.726199417E0,-8.253065689E-1,-6.321376310E0,1.596206843E0,6.571819053E0
9.736142417E0,-6.229835225E0,-1.420370777E1,2.566403176E0,1.572076927E1
9.746085417E0,-1.282272875E1,-2.814105148E1,1.396609213E0,3.095628641E1
9.756028417E0,-1.437942128E1,-3.817164587E1,-7.879269272E-3,4.079022391E1
9.765971417E0,-3.897142043E0,-2.167432333E1,-1.175210970E0,2.205323397E1
9.775914417E0,2.613482033E0,-1.110777431E1,9.713178295E-1,1.145235333E1
9.785857417E0,1.173560667E0,-1.496288920E1,7.361167958E0,1.671682062E1
9.795800417E0,7.264698402E-1,-2.166203248E1,1.007402985E1,2.390099343E1
9.805743417E0,-8.814567961E-1,-2.393488496E1,5.576189606E0,2.459165661E1
9.815686417E0,-1.253845788E0,-2.168543303E1,-2.289082602E0,2.184193293E1
9.825629417E0,-9.763389798E-1,-1.813453591E1,-6.729113182E0,1.936738482E1
9.835572417E0,-4.029725611E-1,-1.477248047E1,-4.228657243E0,1.537108025E1
9.845515417E0,-1.038312449E0,-1.099876350E1,2.011581787E-1,1.104949573E1
9.855458417E0,-2.013150887E0,-6.970624239E0,2.764702724E0,7.764403385E0
9.865401417E0,-2.219539766E0,-3.085635341E0,4.441800533E0,5.846117875E0
9.875344417E0,-2.450762792E0,5.477905512E-1,5.133589879E0,5.714897882E0
9.885287417E0,-2.022797331E0,3.419982641E0,4.478615772E0,5.987152039E0
9.895230417E0,-2.783246876E-1,5.458467028E0,3.036915171E0,6.252613908E0
9.905174417E0,1.804134124E0,7.211213189E0,1.494613225E0,7.582240058E0
9.915117417E0,3.366695210E0,8.931459941E0,1.502149701E-1,9.546107995E0
9.925060417E0,4.351057886E0,1.052150090E1,-9.395042986E-1,1.142437544E1
9.935003417E0,5.071819308E0,1.172695586E1,-1.818824376E0,1.290554016E1
9.944946417E0,5.335723447E0,1.258100719E1,-2.253215781E0,1.385022267E1
9.954889417E0,5.224046305E0,1.282387714E1,-2.566917146E0,1.408302341E1
9.964832417E0,4.383153545E0,1.249818021E1,-2.883426930E0,1.355472960E1
9.974775417E0,3.031714365E0,1.172838492E1,-2.931341938E0,1.246350955E1
9.984718417E0,1.866480207E0,1.064539404E1,-2.786884137E0,1.116131201E1
9.994661417E0,1.026562908E0,9.719049484E0,-2.539236428E0,1.009759753E1
1.000460442E1,6.640836306E-1,9.141762069E0,-2.092951201E0,9.401769276E0
1.001454742E1,8.106946693E-1,8.948692855E0,-1.489510944E0,9.107962040E0
1.002449042E1,1.284641757E0,9.044395403E0,-1.009507091E0,9.190783276E0
1.003443342E1,1.885112798E0,9.381829448E0,-4.774513974E-1,9.581249077E0
1.004437642E1,2.480938518E0,1.009660712E1,2.484903661E-1,1.039991725E1
1.005431942E1,3.157022243E0,1.094018376E1,8.861208276E-1,1.142101660E1
1.006426242E1,3.703308306E0,1.153538821E1,9.780358417E-1,1.215467925E1
1.007420542E1,3.506496874E0,1.220605566E1,6.290364432E-1,1.271530581E1
1.008414842E1,2.572884815E0,1.268797382E1,7.733642904E-1,1.296929097E1
1.009409142E1,1.583931783E0,1.181563941E1,1.145142102E0,1.197620662E1
1.010403442E1,1.021351577E0,9.519063014E0,7.994149518E-1,9.607017434E0
1.011397742E1,1.453514315E0,7.280198055E0,4.976903649E-1,7.440543212E0
1.012392042E1,2.015225333E0,4.331976959E0,4.902925408E-1,4.802868340E0
1.013386342E1,1.067982756E0,3.659234333E-1,4.574880530E-1,1.218106089E0
1.014380742E1,-1.198882692E0,-4.386573581E0,1.211900348E0,4.706171474E0
1.015375042E1,-4.485476018E0,-1.132175434E1,2.135976622E0,1.236381869E1
1.016369342E1,-1.036866871E1,-2.283972486E1,2.868829648E0,2.524663356E1
1.017363642E1,-1.658408353E1,-3.320753988E1,4.292268518E0,3.736570755E1
1.018357942E1,-1.075009428E1,-2.593886376E1,6.220077977E0,2.875897339E1
1.019352242E1,1.409061736E0,-1.418455229E1,4.049795009E0,1.481849582E1
1.020346542E1,4.893407895E0,-1.567755929E1,1.265020987E0,1.647214570E1
1.021340842E1,3.407800552E0,-2.020719143E1,1.192040280E0,2.052716858E1
1.022335142E1,-1.233092996E-1,-2.143685153E1,2.622394359E0,2.159700814E1
1.023329442E1,-3.909029140E0,-1.949685998E1,1.924166059E0,1.997774944E1
1.024323742E1,-3.980763074E0,-1.649094440E1,-9.165134852E-1,1.698934133E1
1.025318042E1,-2.843058338E0,-1.252990019E1,-7.405323207E-1,1.286972290E1
1.026312342E1,-1.867125885E0,-8.255225943E0,2.347133174E0,8.783162789E0
1.027306642E1,-1.936297862E0,-4.119101472E0,4.429797953E0,6.351327125E0
1.028300942E1,-2.673905990E0,-3.504271424E-1,4.751805874E0,5.463719565E0
1.029295242E1,-2.903479371E0,2.562793690E0,4.214264907E0,5.723472081E0
1.030289542E1,-1.836536323E0,4.729459569E0,3.641844714E0,6.245293140E0
1.031283842E1,-5.559825003E-2,6.667879386E0,3.403311059E0,7.486403198E0
1.032278142E1,1.673723819E0,8.497974270E0,2.834553562E0,9.113265716E0
1.033272442E1,3.224895553E0,9.956269269E0,1.700329966E0,1.060275300E1
1.034266742E1,4.167138687E0,1.098869810E1,3.191620803E-1,1.175663197E1
1.035261042E1,4.521725247E0,1.155089386E1,-9.735514659E-1,1.244254598E1
1.036255342E1,4.491855623E0,1.181547802E1,-1.684965237E0,1.275230943E1
1.037249642E1,4.118534584E0,1.201790629E1,-2.003756019E0,1.286108226E1
1.038244042E1,3.733280548E0,1.213239010E1,-2.404879106E0,1.291958655E1
1.039238342E1,3.483925745E0,1.201651699E1,-2.757641627E0,1.281167462E1
1.040232642E1,3.229009069E0,1.152185775E1,-2.598920127E0,1.224475771E1
1.041226942E1,2.802792656E0,1.082124086E1,-2.456557968E0,1.144506783E1
1.042221242E1,2.291899352E0,1.018854406E1,-2.891948662E0,1.083617090E1
1.043215542E1,1.858121466E0,9.656091928E0,-3.246410383E0,1.035528402E1
1.044209842E1,1.423935006E0,9.332000645E0,-3.094024342E0,9.934123694E0
1.045204142E1,8.921422903E-1,9.314260193E0,-2.573777685E0,9.704416128E0
1.046198442E1,5.315499097E-1,9.496647128E0,-1.825783732E0,9.685160723E0
1.047192742E1,5.005393477E-1,9.843494021E0,-1.185374600E0,9.927236630E0
1.048187042E1,8.130110438E-1,1.024655078E1,-7.061777361E-1,1.030298388E1
1.049181342E1,9.364368492E-1,1.034132830E1,-2.630100989E-1,1.038697065E1
1.050175642E1,8.993985388E-1,1.039464789E1,3.038599169E-1,1.043790943E1
1.051169942E1,7.323518468E-1,9.723796254E0,2.693373710E0,1.011646256E1
1.052164242E1,6.976606087E-1,6.745425745E0,4.786165867E0,8.300294122E0
1.053158542E1,3.954853477E-1,3.408198162E0,4.411585338E0,5.588766284E0
1.054152842E1,3.654022271E-1,-4.985143107E-1,2.505112077E0,2.580236777E0
1.055147142E1,-2.621474154E-1,-6.682507950E0,-1.579720910E0,6.871692071E0
1.056141442E1,-1.629387160E0,-1.706812540E1,-4.253137196E0,1.766536111E1
1.057135742E1,-1.778908651E0,-3.428867368E1,-4.839153627E0,3.467412676E1
1.058130042E1,4.547162097E0,-4.050484162E1,-3.650687458E0,4.092244368E1
1.059124342E1,8.779051681E0,-2.079221705E1,2.347608553E0,2.269139273E1
1.060118642E1,5.793818879E0,-1.063449951E1,8.322857763E0,1.469458670E1
1.061112942E1,2.226840745E0,-1.354410676E1,1.194788705E1,1.819762767E1
1.062107342E1,1.906957411E0,-1.877287879E1,9.051536608E0,2.092815757E1
1.063101642E1,3.366646094E0,-2.151425229E1,2.303950609E0,2.189761507E1
1.064095942E1,3.489973227E0,-2.118606445E1,-3.013996132E0,2.168209890E1
1.065090242E1,2.913338654E0,-1.876725610E1,-4.936688985E0,1.962315831E1
1.066084542E1,1.151768825E0,-1.520676721E1,-3.050018781E0,1.555232957E1
1.067078738E1,-1.504299868E0,-1.094351316E1,1.196759860E-1,1.104706842E1
1.068073037E1,-3.431921778E0,-7.195482425E0,2.554736812E0,8.371363963E0
1.069067338E1,-3.764425450E0,-3.946083530E0,3.230933973E0,6.338880700E0
1.070061637E1,-2.527871779E0,-1.004047619E0,2.615961252E0,3.773791280E0
1.071055938E1,-9.169290760E-1,1.825918218E0,1.240608423E0,2.390365145E0
1.072050237E1,4.443370803E-1,4.417835135E0,-3.884336056E-1,4.457082385E0
1.073044537E1,1.401024007E0,6.850535878E0,-1.528438929E0,7.157432196E0
1.074038838E1,1.833737699E0,9.065710843E0,-1.342004258E0,9.346158701E0
1.075033137E1,1.888846245E0,1.118476928E1,-2.454216743E-1,1.134579375E1
1.076027438E1,1.837227902E0,1.323292028E1,9.413284837E-1,1.339297147E1
1.077021737E1,1.890008672E0,1.485177105E1,1.391866536E0,1.503610750E1
1.078016037E1,1.942355577E0,1.572171746E1,8.147194541E-1,1.586218499E1
1.079010338E1,1.748863902E0,1.571498848E1,-1.200526929E-1,1.581245713E1
1.080004637E1,1.295653526E0,1.517800592E1,-6.690887010E-1,1.524789368E1
1.080998938E1,3.073710237E-1,1.467069214E1,-3.024648444E-1,1.467702864E1
1.081993237E1,-1.555507006E-1,1.346468754E1,2.205179442E-1,1.346739153E1
1.082987537E1,-4.020004615E-2,1.199079977E1,1.521953490E-1,1.199183299E1
1.083981838E1,3.189540656E-1,1.071038584E1,-2.021261121E-1,1.071704024E1
1.084976137E1,3.594537815E-1,9.807265842E0,-4.908643985E-1,9.826119182E0
1.085970438E1,-3.423734799E-2,9.276080799E0,-7.970048026E-1,9.310320286E0
1.086964837E1,-5.269566295E-1,8.981670567E0,-8.340181893E-1,9.035689005E0
1.087959138E1,-6.011538492E-1,8.627268487E0,-2.381844293E-1,8.651466889E0
1.088953437E1,-2.748995349E-2,8.263450052E0,6.968726233E-2,8.263789613E0
1.089947738E1,7.777726525E-1,8.119783963E0,-6.035256261E-1,8.179245997E0
1.090942037E1,1.222620341E0,8.103218801E0,-1.650709324E0,8.359533283E0
1.091936337E1,1.110108948E0,7.987129351E0,-2.477472873E0,8.435902381E0
1.092930638E1,6.034602103E-1,8.207321459E0,-3.118912430E0,8.800676366E0
1.093924937E1,1.837617619E-1,8.702862461E0,-2.522142677E0,9.062824454E0
1.094919238E1,7.931807236E-1,7.902906641E0,-1.126472089E0,8.022095014E0
1.095913537E1,1.125058744E0,5.700092105E0,-6.059611376E-1,5.841574795E0
1.096907837E1,-4.783618820E-1,2.869709947E0,-8.368716305E-1,3.027279206E0
1.097902138E1,-2.518054596E0,-8.953671759E-1,3.836299717E-2,2.672780023E0
1.098896437E1,-2.693940305E0,-6.324401659E0,2.731590527E0,7.397091153E0
1.099890738E1,-3.726081749E0,-1.307472269E1,6.030442833E0,1.487273678E1
1.100885037E1,-7.224736630E0,-2.265155678E1,8.123675870E0,2.512536475E1
1.101879337E1,-1.094332839E1,-3.580842818E1,9.430188260E0,3.861254220E1
1.102873638E1,-3.689312995E0,-3.968603029E1,8.898395691E0,4.083838239E1
1.103867937E1,9.825497460E0,-2.773239659E1,3.738554152E0,2.965810190E1
1.104862238E1,1.121356565E1,-1.948040942E1,-1.111324000E0,2.250478720E1
1.105856537E1,5.126779042E0,-1.672493360E1,-1.788538138E0,1.758425819E1
1.106850837E1,-4.901367490E-1,-1.754381744E1,5.590267070E-1,1.755956364E1
1.107845138E1,-4.050187065E0,-1.622549485E1,2.482262328E0,1.690657637E1
1.108839437E1,-5.323669996E0,-1.404406826E1,1.945698284E0,1.514473695E1
1.109833738E1,-4.266331438E0,-1.202475455E1,1.079192965E0,1.280472426E1
1.110828137E1,-2.082837272E0,-9.060865256E0,1.423830487E0,9.405571941E0
1.111822438E1,-4.087724143E-1,-5.196680167E0,2.207569492E0,5.660913593E0
1.112816737E1,5.531739365E-1,-1.150111651E0,2.769413241E0,3.049329092E0
1.113811038E1,1.207010760E0,2.578337928E0,2.444621608E0,3.752449367E0
1.114805337E1,2.046504136E0,5.788984401E0,1.643666353E0,6.356269240E0
1.115799637E1,3.133556782E0,8.446043394E0,1.027108014E0,9.066960791E0
1.116793938E1,4.235923286E0,1.067308294E1,4.793442142E-1,1.149293333E1
1.117788237E1,5.174050273E0,1.263808303E1,-2.921374190E-1,1.365932953E1
1.118782538E1,5.973278114E0,1.424025988E1,-1.070936258E0,1.547940430E1
1.119776837E1,6.127381482E0,1.540970535E1,-1.247197065E0,1.663007286E1
1.120771137E1,5.632190729E0,1.584883593E1,-1.221444685E0,1.686413650E1
1.121765438E1,4.820089366E0,1.539208068E1,-1.450603572E0,1.619424774E1
1.122759737E1,4.195471078E0,1.373702044E1,-1.513916053E0,1.444297926E1
1.123754038E1,3.670460987E0,1.182100715E1,-1.177298353E0,1.243360468E1
1.124748337E1,3.014922331E0,1.062621049E1,-7.935045862E-1,1.107410293E1
1.125742637E1,2.598974799E0,9.698606449E0,-7.317533112E-1,1.006742767E1
1.126736938E1,2.252996656E0,9.044693611E0,-8.318588857E-1,9.358122977E0
1.127731237E1,1.971190829E0,8.617109535E0,-9.454608572E-1,8.890110587E0
1.128725538E1,1.725630283E0,8.564048392E0,-8.230669391E-1,8.774859766E0
1.129719837E1,1.545540865E0,8.842739553E0,-3.825798118E-1,8.984937768E0
1.130714138E1,1.376911844E0,9.170866000E0,-5.207128264E-2,9.273800776E0
1.131708438E1,1.241339617E0,9.468670540E0,9.892319441E-2,9.550205843E0
1.132702838E1,1.134610974E0,9.693190173E0,-3.404702112E-2,9.759428108E0
1.133697137E1,1.123908523E0,9.868280368E0,-3.444466102E-1,9.938046652E0
1.134691437E1,1.216995173E0,1.007390706E1,-3.580724499E-1,1.015346722E1
1.135685738E1,1.314542225E0,1.002705332E1,1.177078132E-1,1.011353918E1
1.136680037E1,8.639209963E-1,9.144972775E0,3.883298906E-1,9.193893987E0
1.137674338E1,-6.139889261E-1,7.253155267E0,1.568299252E0,7.446126931E0
1.138668637E1,-1.776105495E0,4.726734182E0,4.575443909E0,6.814048263E0
1.139662937E1,-2.471887905E0,1.003409103E0,5.933534589E0,6.505681545E0
1.140657238E1,-3.438735538E0,-4.377906253E0,5.520428803E0,7.840031852E0
1.141651537E1,-6.802075324E0,-1.320494252E1,4.038676529E0,1.539316874E1
1.142645838E1,-1.256272997E1,-3.023210233E1,1.905481281E0,3.279379598E1
1.143640137E1,-9.494126394E0,-4.693585732E1,-6.645314981E0,4.834535499E1
1.144634437E1,6.357631971E0,-3.785795211E1,-9.565622054E0,3.956191537E1
1.145628738E1,1.156833961E1,-2.102477017E1,1.770374347E0,2.406245348E1
1.146623037E1,1.161270360E1,-1.906613185E1,9.304546214E0,2.418567446E1
1.147617338E1,7.445953170E0,-2.120411363E1,9.678198497E0,2.446884100E1
1.148611637E1,5.300218568E0,-2.026733355E1,4.449167440E0,2.141616719E1
1.149605938E1,3.623149703E0,-1.778032562E1,1.394939687E0,1.819925959E1
1.150600238E1,1.275533696E0,-1.502055210E1,8.887573372E-1,1.510079009E1
1.151594537E1,-1.003709942E0,-1.142687909E1,7.477916390E-1,1.149522473E1
1.152588838E1,-2.779950508E0,-7.463540425E0,2.031099793E-1,7.967045511E0
1.153583137E1,-3.572620697E0,-3.971190305E0,1.918711191E-1,5.345164694E0
1.154577438E1,-2.819013125E0,-1.140666643E0,1.537734686E0,3.407724073E0
1.155571837E1,-1.068332054E0,1.260042229E0,2.817797781E0,3.266347215E0
1.156566138E1,3.224518700E-1,3.626175930E0,2.425142047E0,4.374293204E0
1.157560437E1,9.229976088E-1,6.435965949E0,1.543466127E0,6.682504768E0
1.158554737E1,1.468855801E0,9.261076843E0,8.347823473E-1,9.413922839E0
1.159549038E1,2.004652982E0,1.173345913E1,-1.845381260E-2,1.190348845E1
1.160543337E1,2.046038259E0,1.379350922E1,-1.256947297E0,1.400096731E1
1.161537638E1,1.754026701E0,1.495518491E1,-1.954951649E0,1.518407064E1
1.162531937E1,1.353968246E0,1.512922027E1,-1.934452481E0,1.531236893E1
1.163526237E1,8.767782927E-1,1.492627160E1,-1.626115351E0,1.504016539E1
1.164520538E1,1.183762962E0,1.405551126E1,-1.466846552E0,1.418133739E1
1.165514837E1,5.124007170E-1,1.362791139E1,-8.039991689E-1,1.366122023E1
1.166509304E1,4.557183932E-1,1.263131430E1,-2.400106609E-1,1.264181100E1
1.167503604E1,1.000388432E0,1.119445928E1,2.693484807E-1,1.124229711E1
1.168497904E1,1.248826977E0,1.031095903E1,6.131658574E-1,1.040439414E1
1.169492204E1,1.283485470E0,9.645759314E0,4.236073121E-1,9.739992343E0
1.170486504E1,8.859873649E-1,9.378078459E0,-4.023344837E-2,9.419922926E0
1.171480804E1,6.955132918E-1,8.994107010E0,-3.988040080E-1,9.029769891E0
1.172475104E1,7.595299244E-1,8.533390855E0,-8.318541348E-1,8.607416947E0
1.173469404E1,6.693230282E-1,8.274742194E0,-1.256855496E0,8.396370492E0
1.174463704E1,6.049652106E-1,8.326562558E0,-1.061509377E0,8.415725109E0
1.175458004E1,8.991110019E-1,8.624531990E0,-2.601045444E-1,8.675171873E0
1.176452304E1,1.693871424E0,8.813487688E0,2.058640909E-1,8.977145740E0
1.177446604E1,2.301584533E0,9.267651452E0,-3.350447260E-1,9.555046299E0
1.178441004E1,2.279310004E0,1.003923541E1,-1.643424278E-1,1.029604342E1
1.179435304E1,2.266286354E0,1.020882689E1,2.568595297E0,1.076818843E1
1.180429604E1,4.178398086E0,8.669774237E0,3.054776076E0,1.009730918E1
1.181423904E1,6.003043365E0,4.440081452E0,1.699446452E-1,7.468583140E0
1.182418204E1,2.679010609E0,-3.365359122E0,-1.865520386E0,4.688593198E0
1.183412504E1,-4.032049879E0,-1.187918461E1,-2.605636824E0,1.281256401E1
1.184406804E1,-9.795282558E0,-2.339903209E1,1.415576849E0,2.540602529E1
1.185401104E1,-1.152875162E1,-3.530258555E1,6.476619301E0,3.769789461E1
1.186395404E1,-2.675940821E0,-2.172119928E1,6.707112449E0,2.289009644E1
1.187389704E1,-1.080957655E0,-7.606949236E0,6.257128274E0,9.908874829E0
1.188384004E1,-2.744564036E0,-1.346237672E1,8.364176527E0,1.608501376E1
1.189378304E1,-1.270160543E0,-2.169471841E1,6.578193623E0,2.270565450E1
1.190372604E1,6.493205074E-1,-2.482273087E1,4.433914978E0,2.522398039E1
1.191366904E1,1.430505522E0,-2.337124612E1,2.251629431E0,2.352299569E1
1.192361204E1,1.727812757E0,-1.936346394E1,1.022181004E-1,1.944066668E1
1.193355504E1,3.464124441E-2,-1.425128773E1,2.267988771E-3,1.425133001E1
1.194349804E1,-2.136194869E0,-9.108921767E0,2.190731850E0,9.609114960E0
1.195344104E1,-2.574487244E0,-5.391067927E0,4.186940283E0,7.295345564E0
1.196338404E1,-1.607367423E0,-2.742233629E0,4.098106459E0,5.186323540E0
1.197332704E1,2.993423581E-2,-2.981430942E-1,1.916188264E0,1.939474884E0
1.198327004E1,1.561055429E0,1.946821681E0,-8.696837197E-1,2.642604488E0
1.199321304E1,3.062737060E0,3.934144685E0,-2.004086972E0,5.373473485E0
1.200315704E1,3.971096457E0,5.782563574E0,-1.715670867E0,7.221577049E0
1.201310004E1,3.890948380E0,7.405315021E0,-1.473537521E0,8.494085159E0
1.202304304E1,3.438331203E0,8.692422842E0,-1.455843115E0,9.460434213E0
1.203298604E1,3.085849349E0,9.732869963E0,-1.299631972E0,1.029272885E1
1.204292904E1,2.611261261E0,1.073959268E1,-9.421203429E-1,1.109257081E1
1.205287204E1,2.168653933E0,1.150239822E1,-9.354119785E-1,1.174236859E1
1.206281504E1,1.885365105E0,1.188959265E1,-1.840912233E0,1.217809398E1
1.207275804E1,1.879206964E0,1.198972739E1,-2.965815368E0,1.249323987E1
1.208270104E1,1.865680746E0,1.155553421E1,-3.002700189E0,1.208417742E1
1.209264404E1,1.306974613E0,1.079983304E1,-2.339663941E0,1.112738081E1
1.210258704E1,6.712338983E-1,9.845342910E0,-1.707533005E0,1.001483904E1
1.211253004E1,4.893189794E-1,8.926851166E0,-1.046881982E0,9.001336939E0
1.212247304E1,6.793337537E-1,8.253090540E0,-3.627378702E-2,8.281081668E0
1.213241604E1,8.169329175E-1,7.919712124E0,1.336898177E0,8.073197400E0
1.214235904E1,9.912404627E-1,8.039335046E0,2.542688624E0,8.489919380E0
1.215230204E1,8.848559287E-1,8.851485819E0,2.832751451E0,9.335751282E0
1.216224504E1,5.695731837E-1,9.993139472E0,1.935981528E0,1.019486511E1
1.217218804E1,1.804608625E-1,1.105075694E1,8.654352790E-1,1.108606212E1
1.218213104E1,-2.156483831E-1,1.188617554E1,7.788964874E-1,1.191362048E1
1.219207404E1,-2.186759251E-1,1.202530653E1,7.309955120E-1,1.204948840E1
1.220201704E1,-3.208367229E-3,1.145519248E1,-2.340786606E-1,1.145758429E1
1.221196004E1,7.194893610E-1,9.955590992E0,-1.534664313E0,1.009884407E1
1.222190304E1,1.869111308E0,6.805524012E0,-2.906720483E0,7.632676996E0
1.223184704E1,1.167709212E0,2.543875024E0,-2.943690673E0,4.062038862E0
1.224179004E1,-1.831644689E0,-1.979685956E0,-5.297987417E-1,2.748593360E0
1.225173304E1,-5.600323988E0,-7.403134010E0,8.935808516E-1,9.325690788E0
1.226167604E1,-9.416794628E0,-1.449785546E1,1.244683932E0,1.733242834E1
1.227161904E1,-1.292993394E1,-1.963712065E1,3.800231168E0,2.381683136E1
1.228156204E1,-8.832469504E0,-1.618637464E1,5.819911494E0,1.933604435E1
1.229150504E1,2.178112681E0,-1.069291670E1,5.179694590E0,1.207939893E1
1.230144804E1,8.017559431E0,-1.284319283E1,2.166667049E0,1.529455156E1
1.231139104E1,9.031611051E0,-1.837142416E1,-1.023157635E0,2.049697723E1
1.232133404E1,7.305915864E0,-2.153100339E1,-9.372808948E-2,2.273695887E1
1.233127704E1,2.027683995E0,-1.741895483E1,2.747603127E0,1.775051584E1
1.234122004E1,-8.873000649E-1,-1.337956845E1,4.989673530E0,1.430723577E1
1.235116304E1,-1.639139147E0,-1.236479821E1,5.815090465E0,1.376191444E1
1.236110604E1,-2.134921346E0,-1.199710073E1,5.385009627E0,1.332241133E1
1.237104904E1,-2.697999735E0,-1.176821732E1,4.563105699E0,1.290705524E1
1.238099204E1,-3.308860400E0,-1.093457628E1,3.574181904E0,1.197030876E1
1.239093504E1,-3.689071505E0,-9.433911182E0,2.943669623E0,1.054860747E1
1.240087804E1,-3.647129427E0,-7.745075088E0,3.506905010E0,9.251276881E0
1.241082104E1,-3.003423782E0,-5.754544886E0,4.282694287E0,7.776683844E0
1.242076404E1,-1.924274086E0,-3.606918125E0,4.129775564E0,5.811001233E0
1.243070704E1,-1.292992897E0,-1.173525072E0,3.545117733E0,3.951816224E0
1.244065004E1,-1.076642409E0,1.473873736E0,3.141846964E0,3.633547167E0
1.245059304E1,-6.074075925E-1,3.768176147E0,2.808605958E0,4.738814502E0
1.246053704E1,9.568295985E-2,5.664363279E0,2.239855478E0,6.091889620E0
1.247048004E1,1.029885442E0,7.491686583E0,7.996535182E-1,7.604306518E0
1.248042304E1,2.212961209E0,9.150300173E0,-8.856906188E-1,9.455667002E0
1.249036604E1,3.254892939E0,1.087248469E1,-1.744486384E0,1.148252952E1
1.250030904E1,4.341896176E0,1.267673547E1,-1.805404431E0,1.352076809E1
1.251025204E1,5.714012572E0,1.400642505E1,-1.969584306E0,1.525480727E1
1.252019504E1,6.529979821E0,1.443621645E1,-2.491366442E0,1.603907381E1
1.253013804E1,6.555135713E0,1.318521285E1,-3.115457311E0,1.505077129E1
1.254008104E1,5.736355952E0,1.114290672E1,-3.580581096E0,1.303421309E1
1.255002404E1,4.469207017E0,9.523343176E0,-3.749200178E0,1.116800692E1
1.255996704E1,3.466683475E0,8.582987523E0,-3.556589971E0,9.916395583E0
1.256991004E1,2.997070490E0,8.291048909E0,-3.414533036E0,9.454256152E0
1.257985304E1,2.996521436E0,8.348215383E0,-3.203266702E0,9.430416659E0
1.258979604E1,3.104193234E0,8.643350669E0,-2.717561302E0,9.577508332E0
1.259973904E1,3.344171151E0,9.151205907E0,-1.983463842E0,9.942946196E0
1.260968204E1,3.797791417E0,9.577186092E0,-1.007862270E0,1.035188386E1
1.261962504E1,4.160414389E0,9.837654991E0,6.817093313E-2,1.068143955E1
1.262956804E1,4.072440691E0,1.010181114E1,8.808122867E-1,1.092735978E1
1.263951104E1,3.554803061E0,1.042881083E1,1.430085107E0,1.111043940E1
1.264945404E1,2.681266758E0,1.052329599E1,2.103335271E0,1.106132764E1
1.265939704E1,1.438435808E0,1.023783024E1,3.199402277E0,1.082212736E1
1.266933979E1,2.029002835E-1,9.483299105E0,4.794709234E0,1.062842260E1
1.267928279E1,-5.664042851E-1,7.452655833E0,5.798913558E0,9.459930826E0
1.268922679E1,-1.122476540E0,3.693101991E0,5.485529696E0,6.707457935E0
1.269916979E1,-1.690994448E0,-2.177777928E0,3.257491441E0,4.267719463E0
1.270911279E1,-2.849612482E0,-1.127696116E1,-5.146426857E-2,1.163154301E1
1.271905579E1,-4.511626813E0,-2.651839066E1,-1.317292463E0,2.693167427E1
1.272899879E1,-3.985812437E0,-4.254403703E1,-9.795395994E-1,4.274156391E1
1.273894179E1,4.888627504E-1,-3.288984662E1,3.431553988E-1,3.289526946E1
1.274888479E1,1.156820308E0,-1.319442455E1,3.913038576E0,1.381097185E1
1.275882779E1,-5.246273180E-1,-9.410974309E0,8.096564085E0,1.242561955E1
1.276877079E1,-3.272351555E0,-9.788855299E0,9.498046367E0,1.402650554E1
1.277871379E1,-3.090228329E0,-1.288426251E1,8.486015545E0,1.573423628E1
1.278865679E1,-2.761394370E-1,-1.733689384E1,4.683762410E0,1.796056155E1
1.279859979E1,1.975060224E0,-1.821509417E1,9.412495463E-1,1.834602053E1
1.280854279E1,2.700585666E0,-1.471067891E1,6.393100011E-1,1.497016881E1
1.281848579E1,1.427669476E0,-1.006767744E1,1.446454826E0,1.027076437E1
1.282842879E1,1.363933802E0,-7.103136179E0,1.054261899E0,7.309331511E0
1.283837179E1,3.065467125E0,-4.934281102E0,8.191773713E-2,5.809554992E0
1.284831479E1,4.166078880E0,-2.576232930E0,-8.174274458E-1,4.966022248E0
1.285825779E1,4.106126208E0,-3.136569268E-1,-1.233273675E0,4.298792512E0
1.286820079E1,2.675028071E0,2.025516433E0,-1.572602072E0,3.705613212E0
1.287814379E1,5.991138288E-1,4.507318584E0,-1.698124250E0,4.853708290E0
1.288808679E1,-1.064167009E0,6.634319876E0,-1.597551118E0,6.906433321E0
1.289802979E1,-1.885712430E0,8.181742814E0,-1.508544070E0,8.530681805E0
1.290797379E1,-1.872111806E0,9.337806346E0,-1.533265074E0,9.646259988E0
1.291791679E1,-1.218547755E0,1.053470391E1,-1.606043029E0,1.072586683E1
1.292785979E1,-5.239112534E-1,1.191326218E1,-1.452042571E0,1.201285671E1
1.293780279E1,1.849167332E-2,1.325592791E1,-1.244995589E0,1.331427732E1
1.294774579E1,4.588546935E-1,1.447577871E1,-1.249184388E0,1.453682148E1
1.295768879E1,9.382067283E-1,1.517310362E1,-1.430909564E0,1.526927659E1
1.296763179E1,1.292447059E0,1.500864366E1,-1.658854934E0,1.515525004E1
1.297757479E1,1.184211516E0,1.437003767E1,-1.975677690E0,1.455347525E1
1.298751779E1,8.478769675E-1,1.332588984E1,-2.020956774E0,1.350490658E1
1.299746079E1,3.215000895E-1,1.219460330E1,-1.737248116E0,1.232192124E1
1.300740379E1,-8.330637775E-2,1.078439873E1,-1.378669224E0,1.087248475E1
1.301734679E1,-3.185205676E-1,9.298519489E0,-9.175814791E-1,9.349110963E0
1.302728979E1,-6.915665674E-1,8.277871624E0,-4.150137323E-1,8.317070358E0
1.303723279E1,-1.090933516E0,7.776508550E0,9.084931518E-1,7.905035166E0
1.304717579E1,-1.213381155E0,7.300466259E0,3.386315542E0,8.138564638E0
1.305711879E1,-1.160522472E0,7.572995625E0,4.687401717E0,8.981581709E0
1.306706179E1,-4.574683186E-1,8.185872703E0,3.189360854E0,8.797147937E0
1.307700479E1,6.141652197E-1,8.828938370E0,8.621111369E-1,8.892164375E0
1.308694779E1,1.507176699E0,7.984230886E0,-1.663139920E0,8.293705977E0
1.309689079E1,1.663317968E-1,4.899505371E0,-2.305926676E0,5.417574825E0
1.310683379E1,-4.170485926E0,9.971584296E-1,1.556900105E0,4.561931140E0
1.311677679E1,-7.155390991E0,-4.572312725E0,5.531642593E0,1.013433440E1
1.312671979E1,-1.037663496E1,-1.493269184E1,8.412742331E0,2.003581973E1
1.313666379E1,-1.267862061E1,-3.033404035E1,8.529651561E0,3.396551752E1
1.314660679E1,-1.695787849E0,-2.886632607E1,3.823030339E0,2.916772254E1
1.315654979E1,3.455015649E0,-1.740998169E1,-2.529915673E0,1.792888923E1
1.316649279E1,4.371480748E0,-2.125508264E1,-3.685417872E0,2.201069483E1
1.317643579E1,7.269582435E0,-2.980031118E1,-3.098544824E-1,3.067574588E1
1.318637879E1,5.275001866E0,-3.071056362E1,9.851122883E-1,3.117586901E1
1.319632179E1,1.611270732E0,-2.359546579E1,-7.944684997E-1,2.366375666E1
1.320626479E1,-1.624831887E0,-1.725256295E1,-9.176497453E-1,1.735318669E1
1.321620779E1,-3.134486197E0,-1.363131096E1,1.229847792E0,1.404101734E1
1.322615079E1,-3.056637537E0,-1.107271324E1,2.839279282E0,1.183256178E1
1.323609379E1,-3.622408569E0,-7.966302153E0,2.962946724E0,9.239202732E0
1.324603679E1,-3.924061162E0,-4.334458517E0,1.561766596E0,6.051851084E0
1.325597979E1,-2.934509667E0,-8.096493334E-1,9.720338210E-2,3.045706409E0
1.326592279E1,-1.099861995E0,2.060788007E0,-5.597573166E-1,2.402055759E0
1.327586579E1,8.111390577E-1,4.311239224E0,-1.223440705E-1,4.388587277E0
1.328580879E1,1.868158942E0,6.351966019E0,4.406591816E-1,6.635636416E0
1.329575179E1,2.466406433E0,8.252097098E0,3.577156967E-1,8.620222023E0
1.330569479E1,2.813234614E0,1.001367255E1,6.600088522E-2,1.040155196E1
1.331563779E1,2.949456905E0,1.152843821E1,-8.900266215E-2,1.190008845E1
1.332558079E1,2.838607437E0,1.276950739E1,-1.741775177E-1,1.308236787E1
1.333552379E1,2.841526952E0,1.370185996E1,-9.118674338E-2,1.399369704E1
1.334546679E1,3.177740682E0,1.392603636E1,2.063983802E-1,1.428548651E1
1.335540979E1,3.740938939E0,1.327754857E1,-4.812322801E-1,1.380288030E1
1.336535379E1,4.181128736E0,1.217712597E1,-1.818915592E0,1.300279541E1
1.337529679E1,4.306466142E0,1.107044686E1,-2.034124850E0,1.205147743E1
1.338523979E1,3.963786853E0,9.867336627E0,-1.473239313E0,1.073528632E1
1.339518279E1,3.174665047E0,9.085077406E0,-1.100862381E0,9.686538474E0
1.340512579E1,2.459767504E0,8.798806499E0,-7.853957406E-1,9.169858148E0
1.341506879E1,1.941713992E0,8.707011645E0,-3.995281126E-1,8.929833577E0
1.342501179E1,1.703874840E0,8.750997325E0,9.149839997E-2,8.915801456E0
1.343495479E1,1.474319293E0,9.135713709E0,5.077024792E-1,9.267828449E0
1.344489779E1,1.219110111E0,9.650443518E0,5.684845783E-1,9.743739748E0
1.345484079E1,9.061237139E-1,1.008830642E1,3.639757258E-1,1.013545583E1
1.346478379E1,5.550432913E-1,1.040803451E1,-5.576533422E-2,1.042297295E1
1.347472679E1,1.556576315E-1,1.059664463E1,-5.108824874E-1,1.061009461E1
1.348466979E1,-3.741952700E-1,1.060675330E1,-7.505975716E-1,1.063986064E1
1.349461279E1,-7.512447122E-1,1.044686470E1,-6.646682060E-1,1.049490993E1
1.350455579E1,-6.394613709E-1,9.984144115E0,1.549230020E-1,1.000580060E1
1.351449879E1,-1.790341419E-1,8.825674455E0,1.772701539E0,9.003724426E0
1.352444179E1,6.294155621E-1,6.850375664E0,2.084540712E0,7.188123585E0
1.353438479E1,1.131170765E0,3.820107023E0,1.070988152E0,4.125503677E0
1.354432779E1,-2.244289641E-1,-3.415896606E-1,3.468344669E-1,5.360466431E-1
1.355427079E1,-4.038366042E0,-5.921930205E0,8.586104089E-1,7.219062922E0
1.356421379E1,-1.007129803E1,-1.435246678E1,2.161553074E0,1.766625763E1
1.357415679E1,-1.805068918E1,-2.912967531E1,5.687186716E0,3.473772382E1
1.358409979E1,-1.804153010E1,-4.090697569E1,8.680411491E0,4.554368246E1
1.359404279E1,4.739118220E-1,-2.460206630E1,5.269135355E0,2.516445998E1
1.360398579E1,1.331523037E1,-1.243356848E1,-1.741346430E0,1.830085441E1
1.361392979E1,1.594466127E1,-1.585514975E1,-5.022095171E0,2.303995305E1
1.362387279E1,7.347877822E0,-2.237503962E1,1.681998360E0,2.361065066E1
1.363381579E1,2.379378229E-2,-2.345476073E1,5.701491344E0,2.413779962E1
1.364375879E1,-7.855285163E0,-2.028098797E1,6.015790880E0,2.256576429E1
1.365370179E1,-9.994170921E0,-1.683616168E1,4.311864584E0,2.004824104E1
1.366364479E1,-5.728309599E0,-1.418468561E1,5.850943252E-2,1.529778611E1
1.367358717E1,-4.065161931E-1,-1.209057315E1,-2.604244017E0,1.237454247E1
1.368353017E1,2.105465997E0,-8.906239146E0,-2.628284844E0,9.521657629E0
1.369347317E1,2.305917028E0,-5.079310176E0,-7.647093880E-1,5.630401909E0
1.370341617E1,1.703081081E0,-1.168003546E0,1.062774714E0,2.322543335E0
1.371335917E1,8.417524476E-1,2.684695272E0,1.777650476E0,3.328089107E0
1.372330217E1,4.608146802E-1,5.965924070E0,2.043527026E0,6.323021658E0
1.373324517E1,1.223380333E0,8.599750321E0,1.753532758E0,8.861559804E0
1.374318817E1,2.518826137E0,1.103777145E1,1.283979706E0,1.139409880E1
1.375313117E1,3.751691384E0,1.325132030E1,7.667418802E-1,1.379349742E1
1.376307417E1,5.055296831E0,1.473828478E1,1.724612868E-1,1.558213102E1
1.377301717E1,6.058944501E0,1.571507502E1,-1.534204868E-1,1.684333486E1
1.378296017E1,6.588400522E0,1.604277404E1,-4.039888072E-1,1.734764616E1
1.379290317E1,6.709116290E0,1.561955491E1,-1.029079622E0,1.703061190E1
1.380284617E1,6.454745452E0,1.428883036E1,-1.521675455E0,1.575277462E1
1.381278917E1,5.136557926E0,1.258990899E1,-1.547184956E0,1.368516778E1
1.382273217E1,3.469114163E0,1.112289053E1,-1.395554375E0,1.173460774E1
1.383267517E1,2.161948054E0,1.009821862E1,-1.008372220E0,1.037616755E1
1.384261817E1,8.997338766E-1,9.536933860E0,-6.185582328E-1,9.599231364E0
1.385256217E1,-1.519559786E-1,9.251067579E0,-4.884845817E-1,9.265201518E0
1.386250517E1,-7.985884479E-1,9.114260859E0,-3.829645586E-1,9.157191511E0
1.387244817E1,-9.559336589E-1,9.200858123E0,-3.884327285E-1,9.258535486E0
1.388239117E1,-6.554106018E-1,9.348998501E0,-1.564808464E-1,9.373250359E0
1.389233417E1,-1.529117060E-1,9.399759935E0,4.703871569E-1,9.412764360E0
1.390227717E1,2.210257749E-1,9.646070970E0,7.738858621E-1,9.679588673E0
1.391222017E1,2.148509690E-1,1.063629811E1,1.336329682E0,1.072206955E1
1.392216317E1,2.381664491E-1,1.099597438E1,2.151070186E0,1.120692994E1
1.393210617E1,7.137637675E-2,1.040268313E1,8.229687059E-1,1.043542948E1
1.394204917E1,1.393778868E-1,8.209012474E0,-1.449229914E0,8.337120566E0
1.395199217E1,3.845612139E-1,5.329824191E0,-1.830352308E0,5.648460215E0
1.396193517E1,-7.921897667E-1,2.278864592E0,-7.148900874E-1,2.516318003E0
1.397187817E1,-2.143834841E0,-2.447327553E0,1.056477117E0,3.420757793E0
1.398182117E1,-3.964404026E0,-8.691636391E0,3.098150722E0,1.004288705E1
1.399176417E1,-8.075923414E0,-2.006351599E1,4.022001439E0,2.199867515E1
1.400170717E1,-1.152251264E1,-3.421503852E1,5.555247803E0,3.652804316E1
1.401165017E1,-2.296332272E0,-2.828138699E1,4.765516132E0,2.877186362E1
1.402159317E1,1.017875232E1,-1.146258219E1,2.232817769E-1,1.533126361E1
1.403153617E1,1.046313399E1,-1.029602407E1,2.808593094E-2,1.467944391E1
1.404147917E1,7.057541345E0,-1.787493357E1,4.858501772E0,1.982239086E1
1.405142217E1,2.362542341E0,-2.219519797E1,8.826864363E0,2.400254057E1
1.406136517E1,-4.501983877E0,-1.968779496E1,7.930154082E0,2.169710748E1
1.407130817E1,-5.475158490E0,-1.662542569E1,6.215552816E0,1.857458577E1
1.408125117E1,-4.271115046E0,-1.407392063E1,3.753506652E0,1.517914615E1
1.409119417E1,-2.141338665E0,-1.293587003E1,-2.382345691E-2,1.311192710E1
1.410113817E1,-8.570481791E-1,-1.132789976E1,-1.984222957E0,1.153225847E1
1.411108117E1,-6.088876690E-1,-8.432315301E0,1.406639819E-1,8.455440372E0
1.412102417E1,-5.918376998E-1,-5.159567304E0,1.610173210E0,5.437284653E0
1.413096717E1,-4.597010779E-1,-1.932296612E0,1.350540170E0,2.401885516E0
1.414091017E1,-1.197822592E-1,9.962240446E-1,1.025179456E0,1.434504463E0
1.415085317E1,1.188753560E-1,3.533284138E0,9.559647954E-1,3.662252974E0
1.416079617E1,6.772435203E-1,5.671864672E0,9.234706485E-1,5.786320565E0
1.417073917E1,1.216805139E0,7.589363151E0,9.268513624E-1,7.741970113E0
1.418068217E1,1.959081976E0,9.230860772E0,5.122451811E-1,9.450353850E0
1.419062517E1,2.646260647E0,1.085655103E1,-1.983120465E-1,1.117616765E1
1.420056817E1,3.577770925E0,1.243133835E1,-4.624136013E-1,1.294420505E1
1.421051117E1,4.611910947E0,1.375965969E1,-6.133528952E-1,1.452494954E1
1.422045417E1,5.645731711E0,1.452440884E1,-8.570755148E-1,1.560664336E1
1.423039717E1,6.191542979E0,1.451782136E1,-1.048421042E0,1.581775990E1
1.424034017E1,6.354727074E0,1.334958276E1,-1.247789388E0,1.483748275E1
1.425028317E1,6.076644022E0,1.180494602E1,-1.605197521E0,1.337381816E1
1.426022617E1,5.480069566E0,1.027473202E1,-1.986053720E0,1.181294586E1
1.427016917E1,4.728816960E0,9.011547500E0,-2.213249623E0,1.041480543E1
1.428011217E1,3.875326374E0,8.287988477E0,-2.102996864E0,9.387838053E0
1.429005517E1,3.192372170E0,8.041680949E0,-1.782735507E0,8.833912975E0
1.429999817E1,2.467091142E0,8.237996537E0,-1.319522445E0,8.700130179E0
1.430994117E1,1.297343372E0,8.736690942E0,-7.181702292E-1,8.861638501E0
1.431988417E1,-3.770923461E-1,9.285264435E0,-1.210485468E-1,9.293706851E0
1.432982717E1,-1.792458257E0,9.386465705E0,5.118628462E-1,9.569777877E0
1.433977017E1,-2.370015814E0,8.978456352E0,1.248842910E0,9.369592416E0
1.434971317E1,-1.919552752E0,7.785629622E0,8.111016355E-1,8.059689649E0
1.435965617E1,-1.737291532E0,6.302381630E0,-2.199501796E-1,6.541144713E0
1.436960017E1,-2.910203669E0,4.554507954E0,1.251428111E0,5.547873503E0
1.437954317E1,-4.671940509E0,1.584069192E0,4.259659181E0,6.517744983E0
1.438948617E1,-7.848736866E0,-2.199927766E0,3.633363912E0,8.924331117E0
1.439942917E1,-1.130200244E1,-5.779767435E0,2.882693689E0,1.301733051E1
1.440937217E1,-1.370344339E1,-9.604453998E0,4.587971569E0,1.735163913E1
1.441931517E1,-1.463117081E1,-1.329185437E1,7.596703160E0,2.117674316E1
1.442925817E1,-1.140066953E1,-1.631372933E1,8.044212209E0,2.146677387E1
1.443920117E1,-2.752268035E0,-1.799548211E1,5.060671592E0,1.889504572E1
1.444914417E1,6.548422524E0,-1.901464712E1,-9.648116326E-1,2.013379011E1
1.445908717E1,1.082329324E1,-1.888196795E1,-6.847674251E0,2.281585047E1
1.446903017E1,7.697837187E0,-1.779381047E1,-4.005944985E0,1.979707008E1
1.447897317E1,3.178694948E0,-1.811769009E1,2.828392936E0,1.861060456E1
1.448891617E1,-8.649267905E-1,-1.690386308E1,5.900669729E0,1.792502688E1
1.449885917E1,-1.790388781E0,-1.388915329E1,6.020625358E0,1.524342484E1
1.450880217E1,-6.596681788E-1,-1.118146794E1,5.461447939E0,1.246145260E1
1.451874517E1,-2.978758764E-1,-8.506048690E0,4.634902491E0,9.691435160E0
1.452868817E1,-3.150041252E-1,-5.779898413E0,3.147722247E0,6.588976294E0
1.453863117E1,-2.019330078E-1,-3.227202280E0,1.512770584E0,3.569886039E0
1.454857417E1,-8.491706640E-2,-7.277105463E-1,2.382372004E-1,7.704093139E-1
1.455851717E1,1.546708408E-1,1.601929513E0,-4.490532982E-1,1.670853105E0
1.456846017E1,5.039821883E-1,3.560095961E0,-3.582187034E-2,3.595770363E0
1.457840317E1,9.260752907E-1,5.223486142E0,1.047176097E0,5.407309932E0
1.458834617E1,1.495934403E0,6.483243027E0,1.450864942E0,6.809938984E0
1.459828917E1,2.170079045E0,7.367569490E0,3.557293244E-1,7.688749353E0
1.460823217E1,2.925633594E0,8.028909461E0,-1.579033424E0,8.689998021E0
1.461817517E1,3.794368165E0,8.721339077E0,-2.991808580E0,9.970451527E0
1.462811817E1,4.712501475E0,9.444520955E0,-3.583008276E0,1.114650593E1
1.463806217E1,5.259308524E0,1.017143979E1,-3.671410575E0,1.202488125E1
1.464800517E1,5.482079254E0,1.069063745E1,-3.447414268E0,1.249910346E1
1.465794817E1,5.554872411E0,1.085789706E1,-3.358275805E0,1.265023922E1
1.466789100E1,5.290474768E0,1.073455004E1,-3.369660333E0,1.243279127E1
1.467783400E1,4.708314868E0,1.037612157E1,-3.150223101E0,1.182184560E1
1.468777700E1,4.095275822E0,9.907662535E0,-2.685525577E0,1.105192782E1
1.469772000E1,3.321910216E0,9.465000243E0,-2.224424676E0,1.027469621E1
1.470766300E1,2.386060135E0,9.352043731E0,-1.837579905E0,9.825004062E0
1.471760600E1,1.667065448E0,9.471966031E0,-1.183287656E0,9.690067976E0
1.472754900E1,9.960309403E-1,9.711632876E0,-3.009399636E-1,9.767213298E0
1.473749200E1,1.903505507E-1,1.006609869E1,5.476486100E-1,1.008278211E1
1.474743500E1,-4.722801930E-1,1.036113984E1,1.157767995E0,1.043631611E1
1.475737800E1,-8.488245088E-1,1.049070712E1,1.767871300E0,1.067243214E1
1.476732100E1,-9.354761517E-1,1.014576349E1,2.212070825E0,1.042616372E1
1.477726400E1,-9.254570939E-1,8.906862459E0,1.965757742E0,9.168035406E0
1.478720700E1,-6.664618394E-1,6.327590146E0,1.131770543E0,6.462466480E0
1.479715000E1,-5.544291144E-1,2.615826182E0,1.493980264E0,3.062991232E0
1.480709300E1,-1.748890800E0,-1.451880019E0,2.472136120E0,3.358278072E0
1.481703600E1,-4.582954950E0,-5.677297320E0,1.997645094E0,7.564771434E0
1.482697900E1,-8.457886344E0,-1.154869530E1,2.441015191E-1,1.431669620E1
1.483692200E1,-1.405004294E1,-1.977643407E1,4.627607797E-1,2.426366004E1
1.484686500E1,-1.670094715E1,-2.826815825E1,3.097657802E0,3.297887037E1
1.485680800E1,-2.238205394E0,-2.329011015E1,1.604460626E0,2.345235784E1
1.486675100E1,7.116240959E0,-1.429215860E1,-8.135283762E-1,1.598651029E1
1.487669400E1,7.159129701E0,-1.417089319E1,2.636973222E0,1.609412874E1
1.488663700E1,6.472523911E0,-1.722726439E1,8.254294481E0,2.016942194E1
1.489658000E1,4.654231924E0,-2.088785879E1,1.106393891E1,2.409097888E1
1.490652300E1,1.396609651E-1,-1.895896058E1,8.156825489E0,2.063965827E1
1.491646700E1,-3.098934541E0,-1.533146493E1,3.699550885E0,1.607307963E1
1.492641000E1,-5.093425940E0,-1.185631264E1,-2.098215596E-1,1.290578019E1
1.493635300E1,-5.161755917E0,-9.477270041E0,-1.485417309E0,1.089352267E1
1.494629600E1,-3.598140285E0,-7.605661680E0,-4.979301739E-1,8.428560823E0
1.495623900E1,-2.159967894E0,-4.975341420E0,-7.040223793E-1,5.469472649E0
1.496618200E1,-1.073320021E0,-1.957891045E0,-4.595760572E-1,2.279597193E0
1.497612500E1,2.063087717E-2,7.367164278E-1,1.168102949E0,1.381173858E0
1.498606800E1,1.028865980E0,3.193691887E0,2.590453944E0,4.238948538E0
1.499601100E1,1.720503883E0,5.553514688E0,2.199393330E0,6.216026868E0
1.500595400E1,2.393622778E0,7.639426426E0,8.563680017E-1,8.051312457E0
1.501589700E1,3.000042629E0,9.398694572E0,-3.686634386E-1,9.872772061E0
1.502584000E1,3.634269061E0,1.091054656E1,-1.185293178E0,1.156083292E1
1.503578300E1,4.230930056E0,1.223088761E1,-1.545489264E0,1.303395251E1
1.504572600E1,4.758928659E0,1.326613948E1,-1.655577132E0,1.419079964E1
1.505566900E1,4.995389768E0,1.392145448E1,-1.812691816E0,1.490123033E1
1.506561200E1,4.789790263E0,1.381296174E1,-2.188306425E0,1.478271584E1
1.507555500E1,4.157919675E0,1.322630357E1,-2.564727949E0,1.409968906E1
1.508549800E1,3.604617831E0,1.247066439E1,-2.573451410E0,1.323379734E1
1.509544100E1,3.482213972E0,1.146748215E1,-2.414589577E0,1.222535087E1
1.510538400E1,3.132751913E0,1.055074048E1,-2.558258005E0,1.129942225E1
1.511532700E1,2.436460503E0,9.888619323E0,-2.514005692E0,1.049005989E1
1.512527000E1,1.732933163E0,9.419884297E0,-2.013272948E0,9.787264453E0
1.513521300E1,1.124445736E0,9.037200404E0,-1.500301981E0,9.229641130E0
1.514515600E1,6.614658321E-1,8.751068076E0,-1.150122103E0,8.851073967E0
1.515509900E1,3.042698067E-1,8.534999424E0,-8.423188967E-1,8.581858564E0
1.516504200E1,9.611682326E-2,8.418495407E0,-3.848825184E-1,8.427837084E0
1.517498500E1,1.901830280E-1,8.355365358E0,8.971967697E-3,8.357534346E0
1.518492800E1,6.161423095E-1,8.253589307E0,1.478024089E-1,8.277874929E0
1.519487200E1,1.065590149E0,7.991094933E0,5.932482675E-2,8.062046888E0
1.520481500E1,1.284288585E0,7.746338671E0,-1.000984848E-1,7.852717981E0
1.521475800E1,1.394762954E0,7.680791969E0,3.012520587E-1,7.812213628E0
1.522470100E1,1.792275824E0,7.568778613E0,1.087772292E0,7.853783221E0
1.523464400E1,1.591191101E0,6.699242097E0,2.106869913E0,7.200738477E0
1.524458700E1,-1.836959077E-1,4.934264730E0,3.134740843E0,5.848701801E0
1.525453000E1,-2.111342887E0,1.470045564E0,3.877481657E0,4.653350057E0
1.526447300E1,-3.754312398E0,-5.728932327E0,3.585787457E0,7.731325817E0
1.527441600E1,-6.415038180E0,-1.936943745E1,1.964646918E0,2.049847945E1
1.528435900E1,-7.580186530E0,-3.954359679E1,2.761446995E-1,4.026451951E1
1.529430200E1,6.160855915E-1,-4.416553542E1,-1.751878727E0,4.420456039E1
1.530424500E1,5.974593737E0,-2.125355769E1,-1.918698328E0,2.216057057E1
1.531418800E1,4.474999269E0,-1.081413182E1,3.488740634E0,1.221238620E1
1.532413100E1,3.217741777E0,-1.089204363E1,8.758899252E0,1.434255182E1
1.533407400E1,5.365752407E0,-1.494948972E1,1.071055892E1,1.915710349E1
1.534401700E1,5.803569111E0,-2.112864947E1,7.836036714E0,2.327025385E1
1.535396000E1,1.326418359E0,-1.985690345E1,4.313458827E0,2.036324943E1
1.536390300E1,-1.030818438E0,-1.518300880E1,3.065917068E0,1.552372991E1
1.537384600E1,-3.193070912E0,-1.155246325E1,5.395161563E-1,1.199775757E1
1.538378900E1,-3.217408486E0,-9.384441399E0,-2.514198650E0,1.023428808E1
1.539373200E1,-1.233777998E0,-7.570011206E0,-2.985429853E0,8.230435542E0
1.540367500E1,1.004405469E-3,-5.004029614E0,-1.788280860E0,5.313968556E0
1.541361800E1,1.194361698E0,-2.362925334E0,-1.336438586E0,2.965802437E0
1.542356100E1,2.388532045E0,-2.132771909E-2,-1.434618015E0,2.786336134E0
1.543350400E1,3.042117439E0,2.138418565E0,-1.220219913E0,3.913597975E0
1.544344700E1,2.927332503E0,3.978313968E0,-1.180096904E0,5.078275919E0
1.545339000E1,2.316902923E0,5.556796145E0,-1.396768403E0,6.180370905E0
1.546333300E1,1.549520773E0,6.955512695E0,-1.666860357E0,7.318373789E0
1.547327600E1,1.050691151E0,8.116382638E0,-1.704934064E0,8.359809757E0
1.548321900E1,3.000853930E-1,9.454839537E0,-1.526918945E0,9.582041712E0
1.549316200E1,-5.578324132E-1,1.062924403E1,-1.377796820E0,1.073267579E1
1.550310600E1,-6.181632534E-1,1.133179518E1,-9.529131335E-1,1.138857986E1
1.551304900E1,-3.910413176E-2,1.195226779E1,-3.371772786E-1,1.195708672E1
1.552299200E1,8.010501257E-1,1.271441960E1,2.417274034E-1,1.274192212E1
1.553293500E1,1.473803131E0,1.362518425E1,8.625947016E-1,1.373178106E1
1.554287800E1,1.783805109E0,1.449403957E1,1.109993173E0,1.464551906E1
1.555282100E1,2.000486110E0,1.495903939E1,5.678049856E-1,1.510288736E1
1.556276400E1,1.999908552E0,1.480042080E1,-3.024830438E-1,1.493799137E1
1.557270700E1,1.522835250E0,1.392567968E1,-1.013453596E0,1.404530776E1
1.558265000E1,6.454576175E-1,1.262288027E1,-1.316371527E0,1.270773607E1
1.559259300E1,-2.963877600E-1,1.123773336E1,-1.263986760E0,1.131247803E1
1.560253600E1,-1.118042012E0,1.010825244E1,-1.016067740E0,1.022052733E1
1.561247900E1,-1.591201188E0,9.199289315E0,-5.405750871E-1,9.351527498E0
1.562242200E1,-1.668548156E0,8.780562601E0,1.472842725E-1,8.938905145E0
1.563236500E1,-1.316312616E0,8.652893325E0,1.868183647E0,8.949600658E0
1.564230800E1,-6.056181253E-1,8.514510196E0,3.932305444E0,9.398227668E0
1.565225100E1,2.747905574E-1,8.442162597E0,4.214378343E0,9.439629440E0
1.566219400E1,2.037779798E0,7.556462622E0,3.247368742E0,8.473374629E0
1.567213787E1,4.945560381E0,4.301608275E0,1.172025699E0,6.658531781E0
1.568208088E1,5.625729555E0,-1.847083969E0,-2.039628688E0,6.262638214E0
1.569202387E1,5.421858853E-1,-6.907885954E0,-3.639788248E0,7.826935056E0
1.570196687E1,-4.394608240E0,-1.195897337E1,-2.677562254E0,1.301917683E1
1.571190988E1,-8.559515045E0,-1.796320665E1,-3.013565485E0,2.012519982E1
1.572185287E1,-1.180357309E1,-2.026309081E1,-2.102554668E0,2.354438199E1
1.573179588E1,-5.143926587E0,-1.782219403E1,2.575852277E0,1.872766925E1
1.574173887E1,3.492660315E0,-1.750104389E1,4.676375037E0,1.844867737E1
1.575168188E1,6.642795416E0,-1.885314702E1,4.772005665E0,2.055091048E1
1.576162488E1,7.662410662E0,-1.755397757E1,4.994850655E0,1.979401926E1
1.577156787E1,6.108147651E0,-1.420124492E1,4.687427444E0,1.615415739E1
1.578151088E1,1.517822286E0,-1.275485310E1,2.955746462E0,1.318053486E1
1.579145387E1,-2.157536329E0,-1.224863040E1,3.141541155E0,1.282782876E1
1.580139788E1,-3.867971746E0,-1.098327773E1,4.550402623E0,1.250199021E1
1.581134087E1,-5.792782753E0,-9.456815895E0,5.035830281E0,1.217979004E1
1.582128388E1,-6.972056222E0,-8.599326982E0,3.170562640E0,1.151566151E1
1.583122687E1,-5.840557428E0,-8.531749542E0,1.656347210E0,1.047121518E1
1.584116987E1,-3.811217501E0,-7.427584142E0,9.201225328E-1,8.398869597E0
1.585111288E1,-1.445517079E0,-5.001634009E0,1.444256419E-1,5.208331898E0
1.586105587E1,5.705425058E-1,-2.303474354E0,-3.712397218E-3,2.373083781E0
1.587099888E1,1.549115122E0,4.487474889E-1,7.550423326E-1,1.780792210E0
1.588094187E1,1.842664936E0,3.007866789E0,1.385969034E0,3.789932301E0
1.589088487E1,1.999227936E0,5.119165383E0,1.536046010E0,5.706330161E0
1.590082788E1,2.300869565E0,6.819175506E0,1.102237500E0,7.280802349E0
1.591077087E1,2.509738394E0,8.280782368E0,-9.063593566E-2,8.653228202E0
1.592071388E1,2.671997459E0,9.539508973E0,-1.095452464E0,9.967036569E0
1.593065687E1,2.848100976E0,1.054351449E1,-1.418015285E0,1.101308968E1
1.594059988E1,3.082275824E0,1.122501800E1,-1.551092066E0,1.174339559E1
1.595054288E1,3.525230184E0,1.153048123E1,-2.229171445E0,1.226166589E1
1.596048587E1,4.085582893E0,1.157512589E1,-3.142282582E0,1.267081160E1
1.597042888E1,4.492872161E0,1.122794512E1,-3.722789474E0,1.265352968E1
1.598037187E1,4.465351656E0,1.051251723E1,-4.009691296E0,1.210495800E1
1.599031488E1,3.833964632E0,9.649521997E0,-4.104557108E0,1.116512197E1
1.600025788E1,3.059916948E0,8.932980802E0,-4.208318288E0,1.033785183E1
1.601020087E1,2.396496830E0,8.547580878E0,-4.281371062E0,9.855682325E0
1.602014388E1,1.669796098E0,8.563755446E0,-4.123685104E0,9.650435492E0
1.603008687E1,1.070147176E0,8.726465331E0,-3.581783284E0,9.493449513E0
1.604002988E1,6.935249461E-1,8.828242552E0,-2.811821342E0,9.291134627E0
1.604997287E1,5.369522984E-1,8.901804033E0,-2.147925553E0,9.173004796E0
1.605991587E1,5.430950908E-1,9.028729543E0,-1.635886048E0,9.191791588E0
1.606985888E1,6.233431555E-1,9.287583441E0,-9.039983971E-1,9.352271166E0
1.607980187E1,7.551070905E-1,9.549331711E0,2.116124886E-1,9.581477062E0
1.608974488E1,5.810028092E-1,9.787667729E0,1.017389065E0,9.857539467E0
1.609968787E1,-1.962004707E-1,1.010360273E1,1.417781834E0,1.020447883E1
1.610963087E1,-8.648010023E-1,9.725227067E0,2.931703296E0,1.019425360E1
1.611957487E1,-8.633447532E-1,7.406294430E0,5.519030149E0,9.276758870E0
1.612951788E1,-1.012869167E0,2.500531368E0,6.885441417E0,7.395124379E0
1.613946088E1,-1.584347520E0,-4.280134376E0,5.890972706E0,7.452064597E0
1.614940387E1,-3.450947156E0,-1.332442921E1,3.463829741E0,1.419322255E1
1.615934688E1,-7.402656877E0,-3.026453333E1,-3.575591375E-1,3.115877332E1
1.616928987E1,-3.137866472E0,-4.439078888E1,-5.714805454E0,4.486699616E1
1.617923288E1,4.803544961E0,-2.578355937E1,-5.295382336E0,2.675643946E1
1.618917588E1,2.490434981E0,-1.283593176E1,-3.304033524E-1,1.307947159E1
1.619911887E1,2.474203695E0,-1.508852481E1,7.274298799E0,1.693223813E1
1.620906188E1,3.685090136E0,-2.145651688E1,9.904561172E0,2.391782469E1
1.621900487E1,4.896273908E0,-2.554922402E1,5.180274049E0,2.652492385E1
1.622894788E1,5.178974798E0,-2.419119649E1,9.459876913E-1,2.475743647E1
1.623889087E1,2.739172027E0,-2.011767991E1,1.684185219E-1,2.030400141E1
1.624883387E1,-1.771649040E0,-1.590836058E1,-2.643474302E-1,1.600888991E1
1.625877688E1,-5.128427957E0,-1.246273673E1,-7.591089249E-1,1.349803047E1
1.626871987E1,-6.313550981E0,-9.302021386E0,1.124639425E0,1.129837783E1
1.627866288E1,-6.004949557E0,-5.527918501E0,3.119928092E0,8.737920430E0
1.628860587E1,-3.169933480E0,-1.527147717E0,3.590951133E0,5.027483313E0
1.629854887E1,5.694104849E-1,1.908415414E0,4.545982713E0,4.963087398E0
1.630849188E1,2.485781182E0,5.046352345E0,4.855610324E0,7.431132598E0
1.631843487E1,3.303608431E0,7.577233686E0,3.513204800E0,8.981698446E0
1.632837788E1,3.648073460E0,9.701767454E0,1.596978090E0,1.048728138E1
1.633832087E1,3.519966520E0,1.173824800E1,1.396431311E-1,1.225545310E1
1.634826387E1,3.080445353E0,1.360777592E1,-5.965710939E-1,1.396483463E1
1.635820688E1,2.601179491E0,1.520196781E1,-7.329864158E-1,1.544031182E1
1.636814987E1,2.280948832E0,1.627272866E1,-1.159670094E0,1.647268224E1
1.637809288E1,1.675317478E0,1.640104463E1,-1.537865664E0,1.655795834E1
1.638803587E1,9.242486206E-1,1.549822167E1,-1.456698855E0,1.559394376E1
1.639797888E1,5.763620934E-1,1.360259997E1,-1.706204079E0,1.372129919E1
1.640792188E1,9.542885448E-1,1.128313114E1,-2.263771759E0,1.154748360E1
1.641786487E1,1.403960478E0,9.608862213E0,-2.484346860E0,1.002363793E1
1.642780788E1,1.367250928E0,8.450622933E0,-2.334982660E0,8.873248958E0
1.643775187E1,1.096359805E0,7.809461119E0,-1.836885840E0,8.097149954E0
1.644769488E1,8.142196633E-1,7.728656107E0,-1.338947042E0,7.885927850E0
1.645763787E1,6.244947647E-1,7.741569682E0,-1.028408143E0,7.834508164E0
1.646758088E1,5.318105493E-1,7.798892276E0,-9.160307244E-1,7.870492709E0
1.647752387E1,7.316028915E-1,8.034664875E0,-1.272538898E0,8.167645787E0
1.648746687E1,1.152941265E0,8.494992190E0,-2.016310576E0,8.806797046E0
1.649740988E1,1.594584094E0,8.953050785E0,-2.813914061E0,9.519344995E0
1.650735287E1,1.912094336E0,9.403930753E0,-3.420765583E0,1.018781898E1
1.651729588E1,2.085726382E0,9.883215326E0,-3.515968194E0,1.069533693E1
1.652723887E1,2.081469901E0,1.050554735E1,-3.091645694E0,1.114707653E1
1.653718187E1,1.913201360E0,1.111423432E1,-2.451183207E0,1.154100702E1
