"Time (s)","Linear Acceleration x (m/s^2)","Linear Acceleration y (m/s^2)","Linear Acceleration z (m/s^2)","Absolute acceleration (m/s^2)"
3.713070834E-2,-2.934843251E-1,-1.128536010E-1,-5.498171961E-1,6.333781915E-1
4.707370835E-2,-4.968363060E-1,-4.992305946E-1,-1.764157587E-1,7.260854092E-1
5.701670834E-2,-5.502469665E-1,-6.859143564E-1,-1.954952234E-1,9.008155254E-1
6.695870834E-2,-5.083101511E-1,-6.926044482E-1,-8.587121505E-1,1.214687898E0
7.690170835E-2,-5.103022975E-1,-8.329420093E-1,-1.449481491E0,1.747912303E0
8.684470833E-2,-5.124299531E-1,-7.452112627E-1,-1.744395168E0,1.964901724E0
9.678770835E-2,-4.340366252E-1,-5.521809331E-1,-1.614439631E0,1.760598448E0
1.067307084E-1,-3.583808175E-1,-4.815231791E-1,-1.547462699E0,1.659801852E0
1.166727083E-1,-4.027996297E-1,-5.765962744E-1,-1.819126677E0,1.950367317E0
1.266157083E-1,-5.916331203E-1,-5.771505904E-1,-2.179499933E0,2.330955279E0
1.365587084E-1,-8.149638677E-1,-6.610739225E-1,-2.153313763E0,2.395400801E0
1.465017083E-1,-1.570001230E0,-1.535853929E0,-1.899092613E0,2.903498564E0
1.564437083E-1,-5.180923967E-1,-1.643791776E0,-2.207353145E0,2.800514067E0
1.663867084E-1,-8.430208549E-1,-1.237397132E0,-2.619813983E0,3.017492523E0
1.763297083E-1,7.504550457E-1,-1.638757616E0,-2.477655891E0,3.063900784E0
1.862727083E-1,2.210498655E0,-1.992431425E0,-2.171147770E0,3.683744009E0
1.962157083E-1,2.220538909E0,-2.171097777E0,-9.388482410E-1,3.244363515E0
2.061587083E-1,1.685426437E0,-2.795118478E0,1.660594627E0,3.662092857E0
2.161007083E-1,7.250497708E-1,-3.842989224E0,5.876831215E0,7.059136525E0
2.260437083E-1,-5.094673151E-1,-3.929858091E0,4.993277754E0,6.374650131E0
2.359867083E-1,-1.224687039E0,-2.315797945E0,2.825129605E0,3.852808813E0
2.459297084E-1,-2.477217935E0,-1.220432898E0,4.989050801E0,5.702341015E0
2.558727083E-1,-1.513468010E0,-1.152166362E0,3.726979589E0,4.184309931E0
2.658147083E-1,5.983417770E-1,-2.010295984E0,1.507542588E0,2.583019063E0
2.757577084E-1,1.159632087E0,-2.218798192E0,-3.832013708E-1,2.532716977E0
2.857007083E-1,1.659197143E0,-1.899258382E0,-1.521798100E0,2.945502846E0
2.956437083E-1,2.054780431E0,-1.902815243E0,-2.224992440E0,3.576789039E0
3.055867083E-1,2.131190530E0,-2.238817305E0,-2.369327450E0,3.894610194E0
3.155287083E-1,2.330216010E0,-2.841351828E0,-1.903519540E0,4.138426452E0
3.254717083E-1,2.380883303E0,-3.338694941E0,-1.508050711E0,4.369176828E0
3.354147083E-1,1.989079801E0,-3.422989571E0,-9.077387148E-1,4.061685073E0
3.453577083E-1,1.034482084E0,-2.795316406E0,-6.900889760E-1,3.059439457E0
3.553007084E-1,1.719443929E-1,-2.130402033E0,-7.787321806E-1,2.274775045E0
3.652427084E-1,-3.396975017E-1,-1.485772820E0,-5.096643662E-1,1.607069703E0
3.751857083E-1,-5.045778733E-1,-7.992817815E-1,-4.164854765E-2,9.461420601E-1
3.851287084E-1,-1.558645499E-1,-8.970654997E-1,2.508753723E-1,9.444356628E-1
3.950717083E-1,4.567757159E-1,-1.680853183E0,3.483151281E-1,1.776298090E0
4.050147083E-1,1.029471313E0,-2.690953255E0,2.516220617E-1,2.892119338E0
4.149567084E-1,1.640789523E0,-3.433223368E0,2.783952928E-1,3.815326578E0
4.248997083E-1,1.861327202E0,-3.399049609E0,4.850639606E-1,3.905555561E0
4.348427083E-1,1.727511333E0,-3.036776007E0,4.271876353E-1,3.519771754E0
4.447857084E-1,1.260267931E0,-2.285102841E0,2.794056916E-1,2.624507152E0
4.547287083E-1,3.667081296E-1,-1.075571930E0,1.716549557E-1,1.149258567E0
4.646707083E-1,-2.317158008E-1,-1.348995043E-1,6.238470393E-1,6.790251962E-1
4.746137084E-1,-2.109125769E-1,2.341415182E-2,1.300515486E0,1.317715017E0
4.845567083E-1,-4.224993378E-1,1.579289094E-2,1.695558053E0,1.747475956E0
4.944997084E-1,-6.723853612E-1,-1.649134085E-2,1.806224796E0,1.927387364E0
5.044427083E-1,-8.820402020E-1,2.738379729E-1,1.365762227E0,1.648723328E0
5.143847083E-1,-7.012975037E-1,8.962612152E-1,8.070800668E-1,1.395163284E0
5.243277084E-1,-3.404582244E-1,1.626327897E0,1.167209494E-1,1.665676443E0
5.342707083E-1,-5.496850491E-1,2.502647768E0,-1.101332424E0,2.788966226E0
5.442137083E-1,-1.186739779E0,3.740287267E0,-1.942721613E0,4.378614782E0
5.541567084E-1,-2.223531221E0,5.173535133E0,-1.880631199E0,5.936862014E0
5.640987083E-1,-3.246449559E0,6.165607070E0,-1.974552101E0,7.242444427E0
5.740417083E-1,-3.866381303E0,5.807410147E0,-1.833239517E0,7.213576375E0
5.839847084E-1,-4.366877820E0,3.255417726E0,-1.477208403E0,5.643537112E0
5.939277083E-1,-3.741204110E0,-1.285647186E0,1.911478186E-1,3.960559856E0
6.038707083E-1,-2.486057755E0,-5.072212826E0,2.362268107E0,6.122755648E0
6.138127084E-1,-2.150518793E0,-6.900722530E0,4.254609233E0,8.387276211E0
6.237557083E-1,-1.730043762E0,-7.457200289E0,5.712013993E0,9.551439234E0
6.336987083E-1,-1.501740981E0,-7.453084434E0,4.843463902E0,9.014590181E0
6.436417083E-1,-7.210295177E-1,-7.734702128E0,2.598726584E0,8.191390628E0
6.535847083E-1,1.452881062E-1,-7.762326713E0,1.348163569E0,7.879871169E0
6.635267083E-1,9.988354111E-1,-7.979324487E0,9.958170784E-1,8.103020616E0
6.734697083E-1,1.911439594E0,-7.918016431E0,1.592228397E0,8.299625100E0
6.834127083E-1,1.994967654E0,-7.339794631E0,2.855617864E0,8.124471340E0
6.933557084E-1,2.244634407E0,-6.836400819E0,3.351367612E0,7.937658637E0
7.032987083E-1,2.682413104E0,-6.565288233E0,2.182593987E0,7.420381807E0
7.132417083E-1,2.470532813E0,-5.388912059E0,1.872006556E-1,5.931184506E0
7.231837084E-1,7.205751890E-1,-3.345766564E0,-1.936000239E0,3.932108776E0
7.331267083E-1,-9.542071223E-1,-1.972963412E0,-3.672896937E0,4.277062984E0
7.430697083E-1,-3.561801009E0,1.282868882E0,-4.530268906E0,5.903855973E0
7.530127083E-1,-2.908175855E0,1.930768735E0,-4.419914989E0,5.632140199E0
7.629557083E-1,9.180128574E-3,5.395296049E-1,-2.363509325E0,2.424325225E0
7.728977083E-1,-8.277540672E-1,2.191879366E0,-1.445087308E0,2.752778465E0
7.828407084E-1,-3.311919079E0,4.701352589E0,-3.965646560E0,6.985547708E0
7.927837083E-1,-1.762658361E0,4.448521323E0,-4.468381975E0,6.546964482E0
8.027267084E-1,-7.181228667E-1,4.133116078E0,-1.335654913E0,4.402535976E0
8.126697083E-1,-4.985773437E0,6.044176773E0,3.386744728E0,8.535809832E0
8.226117083E-1,-4.013848667E0,5.500913136E0,-3.061099255E-1,6.816504217E0
8.325547084E-1,-3.796215885E0,4.924342589E0,9.424518800E-1,6.288769397E0
8.424977083E-1,-3.342915754E0,5.593176937E0,1.129018405E0,6.613123055E0
8.524407083E-1,-2.830535941E0,5.134682139E0,2.008232063E-1,5.866619499E0
8.623837084E-1,-2.890357634E0,4.987723483E0,-4.458742402E-1,5.781899051E0
8.723257083E-1,-2.445034275E0,5.054119202E0,-3.612356474E-1,5.626082536E0
8.822687083E-1,-2.078438997E0,5.058146764E0,-1.060440067E-1,5.469552329E0
8.922117084E-1,-1.905616352E0,5.206292989E0,2.677632274E-1,5.550545695E0
9.021547083E-1,-2.153586828E0,5.088806055E0,2.174093451E-1,5.530022614E0
9.120977084E-1,-2.961963222E0,5.936334236E0,3.543102783E-1,6.643705748E0
9.220397084E-1,-2.698854305E0,5.374251335E0,5.015160520E-2,6.014059125E0
9.319827083E-1,-1.433245527E0,3.508713554E0,-2.619166331E-1,3.799192528E0
9.419257084E-1,-8.511557937E-1,2.314265098E0,-6.678999621E-1,2.554677961E0
9.518687083E-1,-8.907747728E-1,1.798445368E0,-5.225750184E-1,2.073878031E0
9.618117083E-1,-1.202568192E0,1.356311372E0,6.112626618E-1,1.912953955E0
9.717537083E-1,-1.439161740E0,5.762746775E-1,9.262357968E-1,1.805877008E0
9.816967083E-1,-1.461426183E0,-5.239295259E-1,6.468423843E-1,1.681866138E0
9.916388750E-1,-6.378025889E-1,-1.391510733E0,3.345987296E-1,1.566860100E0
1.001581875E0,-1.938001156E-1,-1.836021329E0,9.501725435E-2,1.848664676E0
1.011524875E0,-1.387813246E-1,-1.768953181E0,-2.721387537E-1,1.795136517E0
1.021466875E0,-3.860419482E-1,-1.223385449E0,-5.907862973E-1,1.412348679E0
1.031409875E0,-9.568857318E-1,-8.414000067E-1,-6.170519900E-1,1.415746246E0
1.041352875E0,-8.464914697E-1,-1.041910387E0,3.067297304E-1,1.377028754E0
1.051295875E0,-6.620995241E-1,-1.550670774E0,6.628637552E-1,1.811724037E0
1.061238875E0,-6.772420585E-1,-1.776220101E0,7.001315689E-1,2.025783519E0
1.071181875E0,-6.296299356E-1,-1.812243335E0,7.002052438E-1,2.042289682E0
1.081123875E0,-1.172037540E0,-1.529597408E0,4.766088867E-1,1.985068326E0
1.091066875E0,-1.276474074E0,-1.257644870E0,5.073816133E-1,1.862388999E0
1.101009875E0,-9.351112854E-1,-1.145937324E0,1.218138742E-1,1.484063370E0
1.110952875E0,-4.243751246E-1,-1.496508307E0,1.090728005E-1,1.559335832E0
1.120895875E0,-4.523961514E-1,-1.574793754E0,3.220658076E-1,1.669839522E0
1.130837875E0,-9.282922626E-1,-1.077779547E0,6.180892861E-1,1.550925415E0
1.140780875E0,-9.472471815E-1,-4.693817282E-1,9.144133115E-1,1.397765407E0
1.150723875E0,-1.152770965E0,-1.024660224E-1,1.372828002E0,1.795560332E0
1.160666875E0,-9.765937722E-1,-8.214168549E-2,4.886132570E-1,1.095091579E0
1.170609875E0,-6.251497990E-1,7.391933084E-1,-4.943349402E-2,9.693620008E-1
1.180551875E0,-3.367645383E-1,1.512236733E0,-9.218248766E-2,1.552020587E0
1.190494875E0,3.582004309E-1,1.606463444E0,-1.832154858E-1,1.656079786E0
1.200437875E0,4.689051801E-1,1.844898865E0,3.635740951E-1,1.937965431E0
1.210380875E0,-6.859193265E-2,1.974475795E0,1.653216026E0,2.576117766E0
1.220323875E0,-6.473522615E-1,1.631041338E0,2.218861635E0,2.828905751E0
1.230265875E0,-1.516533852E0,1.321054416E0,2.233306596E0,3.005448061E0
1.240208875E0,-1.837196327E0,1.246072646E0,1.770511172E0,2.839488897E0
1.250151875E0,-1.550153003E0,1.687079006E0,1.368144382E0,2.668525614E0
1.260094875E0,1.128445378E0,1.610286353E0,-1.611986139E0,2.542618812E0
1.270037875E0,1.965119373E0,6.698918161E-1,-1.947045629E0,2.846302141E0
1.279980875E0,3.245820399E0,2.480298248E-1,-9.771224336E-1,3.398769940E0
1.289922875E0,5.484026962E0,6.571188658E-2,-9.619218656E-1,5.568138239E0
1.299865875E0,5.489286532E0,-1.006187992E0,-1.156076396E-1,5.581939272E0
1.309808875E0,5.222365816E0,-1.693768805E0,3.146246409E-1,5.499176860E0
1.319751875E0,3.671312342E0,-6.504612261E-1,9.298534691E-1,3.842689370E0
1.329694875E0,1.985160120E0,6.357452461E-1,9.425056744E-1,2.287651561E0
1.339636875E0,1.702451336E0,7.894480804E-1,-4.810714817E-1,1.937265752E0
1.349579875E0,1.457778105E0,7.369763365E-1,-1.387493988E0,2.143219702E0
1.359522875E0,1.206581136E0,6.673684502E-1,-1.067756542E0,1.743938852E0
1.369465875E0,1.332628979E0,6.143263105E-1,-6.123449814E-1,1.590051316E0
1.379408875E0,1.402147111E0,7.391547167E-1,-2.118048986E-1,1.599133369E0
1.389350875E0,1.227246366E0,3.275060570E-1,6.196294427E-2,1.271704866E0
1.399293875E0,1.373572937E0,-4.516710967E-1,4.012885630E-1,1.500580522E0
1.409236875E0,9.060541320E-1,-8.463268706E-1,6.082226944E-1,1.380991712E0
1.419179875E0,-1.059863970E0,-1.632747263E-2,5.731686366E-1,1.205031331E0
1.429122875E0,-1.897700391E0,2.999694720E-1,-2.497380888E-1,1.937425501E0
1.439064875E0,-1.985278818E0,3.788767701E-1,2.705775654E-1,2.039139968E0
1.449007875E0,-1.664031621E0,7.064184952E-1,5.376432931E-1,1.886024559E0
1.458950875E0,-6.215736419E-1,6.274690971E-1,-1.001908616E-1,8.888810206E-1
1.468893875E0,2.579850018E-1,4.322203338E-1,2.469290864E-1,5.606644735E-1
1.478836875E0,2.171234894E-1,3.345154068E-1,6.474083948E-1,7.603820071E-1
1.488779875E0,3.360997099E-1,9.395981464E-1,1.692744373E0,1.964991401E0
1.498721875E0,2.970859176E-1,7.054665685E-1,5.287894392E-1,9.303555195E-1
1.508664875E0,-2.041683984E-1,2.722112775E-1,2.866936612E-1,4.449460303E-1
1.518607875E0,-1.087241803E0,3.550341636E-1,3.491267216E-1,1.195840066E0
1.528550875E0,-1.271999200E0,2.967456096E-1,-3.760028636E-1,1.359197585E0
1.538493875E0,-7.635949087E-1,-7.041801810E-2,-7.144297653E-1,1.048067637E0
1.548435875E0,-4.942581224E-1,-3.572151750E-1,-9.218772823E-1,1.105328683E0
1.558378875E0,-1.884440660E-2,-2.308135754E-1,-1.859771258E-1,2.970143255E-1
1.568321875E0,-1.846901536E-1,6.233482718E-2,1.161174985E-1,2.268906278E-1
1.578264875E0,-7.988466024E-2,4.726830661E-1,7.716102719E-2,4.855560360E-1
1.588207875E0,5.769395059E-1,7.441979402E-1,1.253653561E0,1.567908485E0
1.598149875E0,-4.776479369E-1,5.775329983E-1,1.194065756E0,1.409781878E0
1.608092875E0,-6.645120853E-1,7.369222498E-1,4.334763157E-1,1.082835366E0
1.618035875E0,-5.824826664E-1,9.745513397E-1,4.535800299E-2,1.136263050E0
1.627978875E0,-7.460743117E-1,6.596787769E-1,2.815023204E-2,9.962908224E-1
1.637921875E0,-1.230302120E0,-5.972375304E-1,1.022522482E0,1.707597201E0
1.647863875E0,-3.218424439E-2,1.572889316E0,6.115819198E-1,1.687912637E0
1.657806875E0,-1.070008889E0,1.507691107E0,1.024867215E0,2.113860049E0
1.667749875E0,-1.288029342E0,4.451935512E-1,2.161678205E0,2.555400075E0
1.677692875E0,-2.883338052E-1,-1.799427992E-1,2.380724258E0,2.404862530E0
1.687635875E0,2.542761129E-1,-2.801927269E-1,1.516428602E0,1.562920347E0
1.697578875E0,5.303582472E-1,2.194015646E-1,-3.005211568E-1,6.478656362E-1
1.707520875E0,8.437637436E-1,2.664506006E-1,-1.708021978E0,1.923609174E0
1.717463875E0,1.043396457E0,3.004574221E-1,2.831291986E-1,1.122102033E0
1.727406875E0,9.766768026E-1,-5.040288198E-1,3.727880645E-1,1.160566055E0
1.737349875E0,9.431745958E-1,-3.708485430E-1,1.919274863E0,2.170419996E0
1.747292875E0,-7.944682074E-1,-6.491929650E-1,6.461009574E-1,1.212467602E0
1.757234875E0,5.025810492E-1,-2.435013317E0,-9.029960382E-1,2.645237118E0
1.767177875E0,2.406592340E0,-1.689910228E0,-1.212148855E0,3.180689881E0
1.777120875E0,2.651478410E0,-2.966836292E-1,-1.762422134E0,3.197575755E0
1.787063875E0,3.426138005E0,8.421844107E-1,-2.489428675E0,4.317980007E0
1.797006875E0,6.206917648E0,-6.927710938E-1,-5.914376771E0,8.601488887E0
1.806949875E0,2.979659235E0,-4.116293639E-1,4.012085731E0,5.014443120E0
1.816891875E0,1.958661708E0,-1.202395114E0,3.122744111E0,3.877323881E0
1.826834875E0,-1.437665145E0,-1.500693160E0,3.948300794E0,4.461842690E0
1.836777875E0,-4.596710525E0,-1.681735235E-1,2.616166197E0,5.291725197E0
1.846720875E0,-5.698621531E0,1.544846070E-1,1.186279603E0,5.822835404E0
1.856663875E0,-4.269575181E0,-5.778545952E-1,-5.505635932E-2,4.308853602E0
1.866605875E0,-2.125836234E0,-4.632456601E-1,-1.086972393E0,2.432135938E0
1.876548875E0,-1.246545978E0,-5.720564961E-1,-8.902688424E-1,1.635146514E0
1.886491875E0,-2.519357648E-1,-8.684313923E-1,4.656525202E-1,1.017092416E0
1.896434875E0,-4.948674023E-1,1.059480393E-1,7.238462676E-1,8.832169337E-1
1.906377875E0,-1.058602434E0,9.311100358E-1,3.123588156E0,3.427011523E0
1.916319875E0,7.035048276E-2,2.033915958E0,2.344587442E0,3.104650317E0
1.926262875E0,5.263596287E-1,1.742453892E0,-9.931111331E-1,2.073516276E0
1.936205875E0,-8.961404702E-1,1.581598744E0,-3.417841390E0,3.871196469E0
1.946148875E0,6.892200798E-2,2.672274617E0,-3.100521183E-1,2.691084203E0
1.956091875E0,2.097371112E0,1.388606129E0,-2.041802975E0,3.239776527E0
1.966034875E0,-3.068947388E0,2.858295012E0,2.183726885E0,4.728313817E0
1.975976875E0,-2.962594137E0,4.554746520E0,5.769895581E0,7.925552025E0
1.985919875E0,2.000636530E-1,8.329475641E-1,1.237167044E-1,8.655246575E-1
1.995862750E0,2.316673858E0,-2.569038516E-1,-1.232005853E0,2.636439981E0
2.005805750E0,2.281548464E0,-8.545945412E-1,-2.333248814E-1,2.447495807E0
2.015748750E0,4.857211291E0,-3.972374951E0,-8.835644981E-1,6.336635582E0
2.025690750E0,5.907056642E0,-5.487000856E0,-2.540612862E0,8.453118376E0
2.035633750E0,5.227323085E0,-4.226955119E0,-3.870828695E0,7.757278582E0
2.045576750E0,5.621583295E0,-1.819166438E0,-6.882754621E-1,5.948553470E0
2.055519750E0,4.713741084E0,-1.171335874E0,1.113711125E0,4.983145112E0
2.065462750E0,1.464890658E0,-3.799128968E-1,1.849750446E0,2.389940409E0
2.075404750E0,5.262547882E0,2.436043596E0,6.391929399E0,8.630497092E0
2.085347750E0,5.257883558E0,4.328452842E0,5.586857851E0,8.808735673E0
2.095290750E0,-2.735974769E0,4.160774578E0,-2.420890975E0,5.536995227E0
2.105233750E0,-5.062947328E0,1.548323994E0,-5.706241622E0,7.784082238E0
2.115176750E0,-2.961719978E-1,2.370005143E-1,-3.040062143E0,3.063635900E0
2.125118750E0,3.369621742E-1,-1.686106029E0,-1.859506963E0,2.532639571E0
2.135061750E0,-1.406554742E0,-3.420116542E0,-6.797889595E-1,3.760014153E0
2.145004750E0,-2.954807984E0,-1.123343682E0,-4.741719134E-1,3.196502816E0
2.154947750E0,-3.490700329E0,1.231636455E0,-1.462754378E0,3.980146670E0
2.164890750E0,-3.144379101E0,5.677804273E-1,-1.911538120E-1,3.200942724E0
2.174833750E0,-2.187786900E0,1.850725615E-1,1.509341923E0,2.664352906E0
2.184775750E0,3.818497869E-1,5.342940080E-1,1.021442062E0,1.214340658E0
2.194718750E0,-1.627034387E0,2.317948551E0,8.241336174E-1,2.949461409E0
2.204661750E0,-2.200058597E0,2.782668294E0,4.221865118E-1,3.572358061E0
2.214604750E0,-1.913903465E0,2.013976368E0,-2.895307302E-2,2.778482601E0
2.224547750E0,-1.083573991E0,1.228254426E0,-4.995359655E-1,1.712389474E0
2.234489750E0,-1.084925575E0,1.697516870E-1,-2.235637296E0,2.490773627E0
2.244432750E0,-5.831062719E-1,-5.421789783E-1,-2.948719279E0,3.054327480E0
2.254375750E0,4.975320370E0,-1.473553893E0,-2.272146288E0,5.664611426E0
2.264318750E0,4.525682642E0,-2.949962397E0,-1.435536905E0,5.589709091E0
2.274261750E0,2.106091064E0,-1.743917450E0,8.332399249E-2,2.735655412E0
2.284203750E0,1.435447589E0,5.594346964E-1,6.873261666E-1,1.686977836E0
2.294146750E0,1.605337270E0,1.467549972E0,2.726391475E-1,2.192063588E0
2.304089750E0,1.218788807E0,4.336067086E-1,-9.113482010E-1,1.582408442E0
2.314032750E0,-3.535397615E0,1.261011697E0,-1.348862458E0,3.988560733E0
2.323975750E0,-6.547832540E0,1.889788524E0,-5.913989393E-1,6.840699112E0
2.333918750E0,-7.168488169E0,3.348608018E0,-5.130158441E-1,7.928655848E0
2.343860750E0,-4.745945502E0,2.392687662E0,-1.034734099E0,5.414760162E0
2.353803750E0,-2.114435187E0,1.510889534E0,1.271067739E-1,2.601879989E0
2.363746750E0,-1.038681408E0,2.446460411E0,1.162856827E0,2.901079732E0
2.373689750E0,-1.710207521E0,2.507053353E0,2.131335979E0,3.708465900E0
2.383632750E0,-2.663119047E0,2.037111461E-2,3.296993184E0,4.238252245E0
2.393574750E0,-1.764880888E0,-2.151153801E0,5.306715410E0,5.991952575E0
2.403517750E0,-1.107714367E0,-2.549763170E0,6.026173196E0,6.636496570E0
2.413460750E0,-5.437876935E-1,-2.244729717E0,5.028455188E0,5.533523121E0
2.423403750E0,-5.486237794E-1,-3.631537827E0,1.821688342E0,4.099707728E0
2.433346750E0,-1.782290095E0,-4.786869872E0,-1.397457936E0,5.295617984E0
2.443289750E0,-1.789563739E0,-6.209912592E0,-2.189316823E0,6.823390721E0
2.453231750E0,-1.704896934E0,-7.363707404E0,-2.329189239E0,7.909234021E0
2.463174750E0,-3.147382816E0,-7.519845019E0,-2.146536547E0,8.429810606E0
2.473117750E0,-6.953157436E0,-5.027735395E0,-9.755579379E-1,8.635753287E0
2.483060750E0,-1.246978263E1,-3.319262012E0,-2.520541710E0,1.314785570E1
2.493003750E0,5.698305196E0,-9.167755866E0,-6.886538354E0,1.280401657E1
2.502945750E0,5.889229651E0,-8.102231206E0,-5.166961108E0,1.127061061E1
2.512888750E0,3.410994008E0,-4.274768386E0,7.690752116E-1,5.522680650E0
2.522831750E0,5.159209455E0,-3.659320872E0,1.818344904E0,6.581371410E0
2.532774750E0,9.328395252E0,-4.473571379E0,2.122924321E0,1.056118396E1
2.542717750E0,1.060416766E1,-6.291187720E0,2.038698980E0,1.249734805E1
2.552660750E0,8.323995631E0,-6.576938226E0,2.687045561E0,1.094373033E1
2.562602750E0,3.587942156E0,-4.476606084E0,4.536167869E0,7.313696048E0
2.572545750E0,-2.098742576E0,-6.883312445E0,9.815924399E0,1.217115781E1
2.582488750E0,-1.609509258E0,-2.807893767E0,4.107766060E0,5.229582150E0
2.592431750E0,-2.010738911E0,9.688660920E-1,-1.201690379E0,2.534922531E0
2.602374750E0,-1.208742998E0,5.669551513E0,-4.440217692E0,7.302082384E0
2.612316750E0,-1.549646926E0,8.598361607E0,-5.977663525E0,1.058610831E1
2.622259750E0,-2.169384542E0,1.027057582E1,-3.621470675E0,1.110432379E1
2.632202750E0,-8.642956567E-1,1.020203944E1,-1.415801529E0,1.033601033E1
2.642145750E0,7.602885275E-1,1.055776883E1,-1.305121192E-1,1.058591304E1
2.652088750E0,-1.403974950E-1,1.074263908E1,-2.434499931E-1,1.074631443E1
2.662031750E0,-1.438539011E0,7.376308739E0,2.790623431E0,8.016664158E0
2.671973750E0,-1.268093991E0,4.071164244E0,3.722420515E0,5.660287551E0
2.681916750E0,-1.675000705E0,3.068464993E0,1.896806352E0,3.977308023E0
2.691859750E0,-1.788560065E0,2.683238731E0,6.568184651E-2,3.225373048E0
2.701802750E0,-1.721993608E0,2.676500400E0,-3.057473981E-1,3.197248480E0
2.711745750E0,-1.379408166E0,2.887430518E0,4.505186105E-1,3.231561373E0
2.721687750E0,-8.818905133E-1,1.228925686E0,8.725180113E-1,1.746217884E0
2.731630750E0,1.404588908E-1,-2.198791652E0,1.222101985E0,2.519513185E0
2.741573750E0,7.544241357E-1,-5.014591439E0,1.315576744E0,5.238895423E0
2.751516750E0,9.713421685E-1,-7.715101676E0,1.841709574E-1,7.778188634E0
2.761459750E0,1.369524325E0,-9.307345276E0,-1.225455948E0,9.487044600E0
2.771402750E0,1.778887601E0,-7.232794093E0,-8.721847200E-1,7.499230472E0
2.781344750E0,1.165344232E0,-2.380752910E0,-4.520026338E-1,2.688925060E0
2.791287750E0,8.687011682E-1,4.088069129E-1,-8.179892170E-1,1.261297416E0
2.801230750E0,7.879486350E-1,1.430963359E0,-6.484223020E-1,1.757546775E0
2.811173750E0,1.114648726E0,1.524366782E0,-2.153050419E-1,1.900655710E0
2.821116750E0,1.335666169E0,5.262710434E-1,2.259832271E-1,1.453283780E0
2.831058750E0,1.243356468E0,-8.931762242E-1,8.573784737E-1,1.754650085E0
2.841001750E0,8.284036928E-1,-1.895020612E0,1.181608847E0,2.381922599E0
2.850944750E0,6.853214487E-1,-6.650517833E-1,4.794903946E-1,1.068583362E0
2.860887750E0,6.197895102E-1,1.989987581E0,-4.673335947E-2,2.084795821E0
2.870830750E0,3.885468661E0,8.325783709E0,-1.592608466E0,9.324802562E0
2.880772750E0,1.141843337E1,2.872410074E1,-1.193209723E0,3.093345007E1
2.890715750E0,-5.140433460E0,1.047862326E1,4.825200709E0,1.262965413E1
2.900658750E0,7.347753715E-2,5.349762611E0,-2.090938443E0,5.744334820E0
2.910601750E0,1.124287715E0,-7.377562966E0,1.147082281E0,7.550381179E0
2.920544750E0,-1.887041210E0,-1.020461455E1,2.184428551E0,1.060503705E1
2.930487750E0,-3.608202466E0,-8.200103656E0,-1.884330733E0,9.154863588E0
2.940429750E0,-6.636554682E0,-8.818457236E0,7.788375767E-1,1.106415989E1
2.950372750E0,-8.197271265E0,-8.338240033E0,-1.441003028E0,1.178125599E1
2.960315750E0,-5.452646125E0,-5.688838554E0,-3.158745418E0,8.489517446E0
2.970258750E0,-3.535913047E0,-5.242546311E0,-5.037656951E0,8.084859953E0
2.980201750E0,-2.109207923E0,-1.983032318E0,-3.235077310E0,4.341301698E0
2.990145625E0,-2.199288080E0,1.759520745E-1,-1.005957612E0,2.424825336E0
3.000087625E0,-2.993648407E0,6.759521627E-1,1.310142342E0,3.336961951E0
3.010030625E0,-4.065605296E0,1.729809873E0,3.550750064E0,5.668263811E0
3.019973625E0,-3.609397052E0,1.422802985E0,3.458139524E0,5.197195819E0
3.029916625E0,-1.318969591E0,1.994512741E0,2.036924643E0,3.141150085E0
3.039859625E0,2.188021373E0,1.806459854E0,-1.516882930E0,3.217400901E0
3.049801625E0,4.421697221E0,7.427215183E-1,-4.450095978E0,6.317150923E0
3.059744625E0,5.351906785E0,4.615914828E-1,-2.239703450E0,5.819986639E0
3.069687625E0,4.002742465E0,3.838697076E0,6.591289047E0,8.614095065E0
3.079630625E0,1.901462636E0,7.229765235E0,9.438288993E0,1.204019786E1
3.089573625E0,2.416938842E0,5.320963320E0,6.799235916E0,8.965704270E0
3.099516625E0,1.567289730E0,1.761198896E0,2.565851784E-1,2.371508930E0
3.109458625E0,2.015886068E-1,-2.343033691E0,-8.109517422E0,8.443619938E0
3.119401625E0,3.404977808E0,-1.278122872E1,-7.883025523E0,1.539791456E1
3.129344625E0,4.689561386E0,-2.264334729E1,-4.741784623E0,2.360503514E1
3.139287625E0,2.197290087E0,-2.831940091E1,-5.392384136E0,2.891183768E1
3.149230625E0,1.048537036E0,-3.049297001E1,-2.186884674E0,3.058926470E1
3.159173625E0,4.700088421E-1,-2.121185301E1,-2.981606651E0,2.142553604E1
3.169115625E0,1.884652330E0,-1.244832685E1,-3.053192942E0,1.295510490E1
3.179058625E0,4.183390146E0,-8.738553865E0,-8.840104213E-1,9.728543118E0
3.189001625E0,5.112441670E0,-5.807844011E0,4.194684336E-1,7.748810595E0
3.198944625E0,5.141887078E0,-2.718788633E0,1.577662106E-1,5.818565505E0
3.208887625E0,4.616907100E0,-2.099594808E-1,-5.226393378E-1,4.651135994E0
3.218829625E0,2.962721021E0,1.815315462E0,-7.660700351E-2,3.475479062E0
3.228772625E0,1.116657099E0,3.805398937E0,-8.871687949E-3,3.965862183E0
3.238715625E0,-9.398557162E-1,5.851515695E0,5.264131308E-2,5.926747489E0
3.248658625E0,-2.917146361E0,7.778140508E0,1.014320154E0,8.368874358E0
3.258601625E0,-4.384175638E0,9.528269455E0,2.239711636E0,1.072498126E1
3.268544625E0,-5.493634522E0,1.100006275E1,2.856870046E0,1.262311797E1
3.278486625E0,-6.257910631E0,1.192481862E1,3.281121794E0,1.386104270E1
3.288429625E0,-6.571948212E0,1.249750661E1,3.813914237E0,1.462614497E1
3.298372625E0,-6.246111535E0,1.242637407E1,4.128241839E0,1.450762084E1
3.308315625E0,-4.930010880E0,1.117916764E1,3.198885384E0,1.262979272E1
3.318258625E0,-2.743525571E0,8.950597878E0,1.586258536E0,9.495069830E0
3.328201625E0,-1.440412459E0,7.818357072E0,8.879089062E-1,7.999367324E0
3.338143625E0,-1.179960225E0,7.479024437E0,9.830574305E-1,7.635084451E0
3.348086625E0,-1.376303879E0,7.632955313E0,1.282380785E0,7.861343375E0
3.358029625E0,-1.411731867E0,8.156861157E0,1.422054541E0,8.399381520E0
3.367972625E0,-1.453624828E0,8.704879165E0,1.454217736E0,8.944422600E0
3.377915625E0,-1.750303779E0,9.080868580E0,1.562780650E0,9.379126870E0
3.387857625E0,-2.326401871E0,9.138936694E0,1.683260189E0,9.579440194E0
3.397800625E0,-3.127662789E0,8.985834954E0,1.847296808E0,9.692265464E0
3.407743625E0,-3.875796197E0,8.804158455E0,2.110792079E0,9.848372732E0
3.417686625E0,-4.376165245E0,8.651716281E0,2.333651687E0,9.972409290E0
3.427629625E0,-4.607602426E0,8.603641058E0,2.373645912E0,1.004424385E1
3.437572625E0,-4.436000972E0,8.550414439E0,1.951217179E0,9.828272492E0
3.447514625E0,-4.041680244E0,8.338751664E0,1.314792486E0,9.359414394E0
3.457457625E0,-3.596947453E0,8.042872612E0,1.163971306E0,8.887106393E0
3.467400625E0,-2.714226927E0,7.578490838E0,3.669528356E-1,8.058238367E0
3.477343625E0,-1.143331804E0,6.148368893E0,-3.860494034E0,7.349357921E0
3.487286625E0,9.148604773E-1,2.425580004E0,-1.172813466E1,1.201122602E1
3.497229625E0,3.350727926E0,-3.082921649E0,-1.368778922E1,1.442523335E1
3.507171625E0,7.396986247E0,-9.238858593E0,-8.550630201E0,1.460086266E1
3.517114625E0,1.223386268E1,-1.687109411E1,5.172701320E-1,2.084631337E1
3.527057625E0,1.094379149E1,-2.480606864E1,9.407146722E0,2.869846726E1
3.537000625E0,8.047170900E0,-3.192679617E1,1.281532208E0,3.295025945E1
3.546943625E0,6.039604250E0,-3.245522074E1,-1.514056503E1,3.631879517E1
3.556886625E0,1.245455180E0,-2.638642134E1,-1.113506678E1,2.866677697E1
3.566828625E0,-6.435018700E-1,-2.129280186E1,-8.196837401E-1,2.131828762E1
3.576771625E0,1.906659495E0,-1.741272287E1,4.938187042E-1,1.752375887E1
3.586714625E0,4.996286731E0,-1.405107322E1,-1.964222410E0,1.504173226E1
3.596657625E0,6.032817972E0,-1.007053790E1,-3.360323499E0,1.221074937E1
3.606600625E0,5.594051095E0,-6.248667353E0,-3.381723139E0,9.042969796E0
3.616543625E0,4.470344593E0,-3.162297016E0,-2.688785107E0,6.100300694E0
3.626485625E0,2.890548838E0,-4.769988960E-1,-2.123740300E0,3.618435214E0
3.636428625E0,1.047408816E0,2.179634419E0,-1.279965885E0,2.736089197E0
3.646371625E0,-9.939272583E-1,4.608395893E0,5.415793464E-2,4.714672542E0
3.656314625E0,-2.499071903E0,6.497447083E0,1.057622002E0,7.041359476E0
3.666257625E0,-2.999873937E0,8.412935874E0,2.142381516E0,9.185125596E0
3.676199625E0,-3.434418539E0,1.042058263E1,3.459924971E0,1.150455796E1
3.686142625E0,-4.473650317E0,1.206262814E1,4.152059303E0,1.351888091E1
3.696085625E0,-5.430667026E0,1.332973731E1,4.231447535E0,1.500263941E1
3.706028625E0,-5.527822607E0,1.366359344E1,3.516674538E0,1.515313856E1
3.715971625E0,-4.023598022E0,1.235631156E1,1.493139288E0,1.308041442E1
3.725914625E0,-1.362671096E0,9.613185645E0,-4.850801866E-1,9.721394630E0
3.735857625E0,-6.729756376E-1,8.057874228E0,-1.425147572E0,8.210558988E0
3.745799625E0,-1.611231263E0,7.645775918E0,-6.097476482E-1,7.837457991E0
3.755742625E0,-2.656919829E0,7.669743070E0,1.168500559E0,8.200583839E0
3.765685625E0,-3.026318847E0,8.105144874E0,2.540925103E0,9.017110378E0
3.775628625E0,-2.888162882E0,9.070521932E0,3.476922827E0,1.013433990E1
3.785571625E0,-2.955026962E0,1.011666073E1,4.434165823E0,1.143419587E1
3.795514625E0,-3.693772666E0,1.100982994E1,5.608519446E0,1.289634841E1
3.805456625E0,-4.768883252E0,1.172893689E1,6.177897917E0,1.408817344E1
3.815399625E0,-5.128763003E0,1.195181872E1,5.793865657E0,1.423794437E1
3.825342625E0,-3.879134080E0,1.127243190E1,4.552262038E0,1.276081862E1
3.835285625E0,-9.068405825E-1,9.988393872E0,2.902616322E0,1.044105136E1
3.845228625E0,1.302162062E0,9.294012455E0,-2.873579049E-1,9.389188895E0
3.855171625E0,3.119084046E0,7.749231289E0,-4.253934757E0,9.374178992E0
3.865113625E0,5.064985667E0,4.679201581E0,-7.929003350E0,1.050800178E1
3.875056625E0,5.437140478E0,1.306794226E-1,-8.826021194E0,1.036717048E1
3.884999625E0,6.836659266E0,-5.229657294E0,-1.813599158E0,8.796497441E0
3.894942625E0,1.269327373E1,-1.148796378E1,2.448435308E0,1.729414194E1
3.904885625E0,1.888898227E1,-1.777154310E1,-2.550957464E0,2.606009938E1
3.914828625E0,1.097077756E1,-1.371835145E1,3.442126046E0,1.789970275E1
3.924770625E0,-3.059294804E0,-5.013596828E0,5.659411272E0,8.156247532E0
3.934713625E0,-5.828636125E0,-5.167543491E0,9.289491972E-1,7.844708498E0
3.944656625E0,-8.408376800E0,-8.234353722E0,-2.047453724E0,1.194560373E1
3.954599625E0,-1.339422391E1,-1.358287146E1,-7.322217901E0,2.043317171E1
3.964542625E0,-1.398746136E1,-1.998345591E1,-9.340360994E0,2.611953156E1
3.974485625E0,-1.056790440E1,-2.451049423E1,-8.067228019E0,2.788413704E1
3.984427625E0,-4.304912829E0,-2.404458341E1,-4.132201574E0,2.477396528E1
3.994369833E0,-9.868379478E-1,-1.585777515E1,-1.646472724E0,1.597353293E1
4.004312833E0,9.962116192E-1,-8.923066848E0,-1.929787864E0,9.183552731E0
4.014255833E0,3.632072847E0,-6.432169937E0,-3.010156266E0,7.976578465E0
4.024198833E0,5.035581774E0,-5.186452802E0,-3.263636573E0,7.931437458E0
4.034141833E0,5.034953198E0,-4.538097743E0,-2.254830051E0,7.143482581E0
4.044083833E0,4.159316575E0,-4.198278619E0,-9.281788266E-1,5.982221466E0
4.054026833E0,2.930446145E0,-3.425247474E0,6.574112266E-2,4.508232110E0
4.063969833E0,1.391295117E0,-1.879325516E0,7.375581345E-1,2.451847977E0
4.073912833E0,-2.564191175E-1,3.603978145E-1,1.586530870E0,1.647032954E0
4.083855833E0,-1.793349665E0,3.108552334E0,3.018337398E0,4.689302856E0
4.093798833E0,-3.374593629E0,6.219838241E0,4.428764166E0,8.347947169E0
4.103741833E0,-4.904100114E0,9.693862603E0,4.877921252E0,1.190862233E1
4.113683833E0,-5.923413643E0,1.269341640E1,4.314186805E0,1.465680241E1
4.123626833E0,-5.882778418E0,1.426407442E1,3.666463830E0,1.585918844E1
4.133569833E0,-4.078448120E0,1.405886054E1,2.977033836E0,1.493814009E1
4.143512833E0,-3.514536211E-1,1.162810166E1,1.717723678E0,1.175954261E1
4.153455833E0,2.702710836E0,8.299059595E0,7.776305652E-1,8.762633469E0
4.163398833E0,3.293499472E0,6.744988958E0,6.684630489E-1,7.535838219E0
4.173340833E0,3.312696759E0,6.503354525E0,7.459107359E-1,7.336481631E0
4.183283833E0,3.166570162E0,6.609978502E0,9.958885606E-1,7.396673334E0
4.193226833E0,2.301364971E0,7.144889976E0,1.472183890E0,7.649382910E0
4.203169833E0,7.621240416E-1,8.281357734E0,2.000540636E0,8.553588826E0
4.213112833E0,-5.665370169E-1,9.449820871E0,2.184839318E0,9.715636960E0
4.223055833E0,-1.260308862E0,1.024518604E1,2.436085696E0,1.060597610E1
4.232998833E0,-1.625539839E0,1.061480024E1,2.708279140E0,1.107479750E1
4.242940833E0,-1.921893539E0,1.066795727E1,2.726557828E0,1.117734784E1
4.252883833E0,-2.299441237E0,1.043592339E1,2.801750683E0,1.104743109E1
4.262826833E0,-2.684356719E0,9.985981311E0,2.215444230E0,1.057514950E1
4.272769833E0,-2.634023886E0,8.761805903E0,1.801388856E0,9.324823125E0
4.282712833E0,-1.932413264E0,6.571154745E0,6.577065110E-1,6.880906449E0
4.292655833E0,-1.210478598E0,3.671990034E0,-2.249836675E0,4.473313571E0
4.302597833E0,-1.942929043E0,-4.936026496E-1,-3.669191264E0,4.181098106E0
4.312540833E0,-3.814567371E0,-7.063410780E0,-2.590333199E0,8.435195443E0
4.322483833E0,-3.754393675E0,-1.606489288E1,-2.293342006E0,1.665640035E1
4.332426833E0,-1.694389341E0,-2.452100752E1,-1.921377814E0,2.465446121E1
4.342369833E0,2.280901762E0,-3.005130175E1,-3.875145987E0,3.038585207E1
4.352312833E0,9.115026260E0,-2.901022371E1,-6.398679425E0,3.107442488E1
4.362255833E0,1.117072894E1,-2.026265812E1,-9.377583784E0,2.496596837E1
4.372197833E0,6.530061098E0,-1.120365929E1,-1.046649263E1,1.666466764E1
4.382140833E0,1.524253638E0,-5.152093393E0,-8.870382850E0,1.037068500E1
4.392083833E0,-5.159185481E-1,-3.062796702E0,-6.777795346E0,7.455562040E0
4.402026833E0,-6.353160605E-1,-4.659140954E0,-6.403610966E0,7.944649415E0
4.411969833E0,-9.080663782E-1,-8.277505004E0,-5.647261927E0,1.006147310E1
4.421912833E0,-1.210679011E0,-1.023434413E1,-4.266570882E0,1.115397555E1
4.431854833E0,-1.025316793E0,-9.224915323E0,-2.630831307E0,9.647362883E0
4.441797833E0,5.178193317E-1,-6.126816641E0,-9.152398154E-1,6.216404341E0
4.451740833E0,3.006828908E0,-3.105815252E0,9.088868156E-1,4.417372941E0
4.461683833E0,5.032178110E0,-9.244056183E-1,2.315361743E0,5.615891940E0
4.471626833E0,5.468576864E0,8.416447127E-1,3.332106299E0,6.458841314E0
4.481569833E0,4.101755122E0,2.480013489E0,4.372463957E0,6.487935191E0
4.491511833E0,1.594681743E0,3.883319517E0,5.542173429E0,6.952615813E0
4.501454833E0,-7.689905731E-1,5.033480285E0,5.954282849E0,7.834587068E0
4.511397833E0,-2.530548050E0,6.053607162E0,5.158166896E0,8.346048097E0
4.521340833E0,-3.602049149E0,7.019354349E0,3.955576192E0,8.825682782E0
4.531283833E0,-4.094191164E0,7.856171601E0,2.494846998E0,9.203591421E0
4.541226833E0,-4.356023049E0,8.724918158E0,1.308237611E0,9.839238757E0
4.551169833E0,-4.450281335E0,9.862260075E0,8.113397634E-1,1.085022811E1
4.561111833E0,-3.966845239E0,1.099960433E1,1.070370394E0,1.174192699E1
4.571054833E0,-2.998592227E0,1.208490486E1,1.848898945E0,1.258788736E1
4.580997833E0,-1.856911092E0,1.337469304E1,2.073608612E0,1.366127320E1
4.590940833E0,-5.016909568E-1,1.447608979E1,1.488554632E0,1.456106673E1
4.600883833E0,9.570153207E-1,1.459114662E1,7.356215367E-1,1.464098962E1
4.610826833E0,2.058742358E0,1.277635331E1,5.801563516E-1,1.295415784E1
4.620769833E0,2.023640792E0,1.020421694E1,1.189253936E0,1.047069675E1
4.630711833E0,1.418075218E0,8.013768096E0,2.310363543E0,8.459857926E0
4.640654833E0,1.203770087E0,6.191395045E0,3.259191227E0,7.099631151E0
4.650597833E0,1.413689807E0,5.095606366E0,3.921790980E0,6.583628757E0
4.660540833E0,1.909198941E0,5.092499741E0,3.670556589E0,6.561370274E0
4.670483833E0,2.342827577E0,5.992794365E0,2.803137935E0,7.018547402E0
4.680426833E0,2.986450192E0,6.398251993E0,-5.980400607E-2,7.061167739E0
4.690369833E0,2.613946594E0,5.464639934E0,-4.118355660E0,7.325016023E0
4.700311833E0,-4.856910013E-1,2.927867523E0,-3.705587843E0,4.747597839E0
4.710254833E0,-2.457371315E0,-2.593989170E0,2.861793401E0,4.577916018E0
4.720197833E0,4.590093523E-2,-9.609283213E0,3.530872747E0,1.023755308E1
4.730140833E0,3.602859865E0,-1.514985626E1,7.168297550E-1,1.558886105E1
4.740083833E0,2.003352415E0,-1.509602562E1,5.453185238E0,1.617530957E1
4.750026833E0,-4.159904512E0,-1.186798836E1,1.835539811E0,1.270917620E1
4.759968833E0,-6.947319576E0,-1.345214292E1,-5.121362182E0,1.598292054E1
4.769911833E0,-5.413316583E0,-1.887036356E1,-1.082989357E1,2.242055335E1
4.779854833E0,-1.564276367E-1,-2.286984504E1,-1.248877555E1,2.605808505E1
4.789797833E0,7.010399923E0,-2.094918906E1,-5.854283767E0,2.285359639E1
4.799740833E0,8.834261091E0,-1.067593522E1,-3.636845344E-1,1.386189122E1
4.809683833E0,6.456522421E0,-5.425294020E0,3.771524262E-1,8.441726181E0
4.819626833E0,3.312621914E0,-5.264207906E0,3.838887110E-1,6.231590436E0
4.829568833E0,7.388154320E-2,-6.819132237E0,-1.746200203E0,7.039548146E0
4.839511833E0,-3.319512565E0,-7.818727786E0,-1.109159214E0,8.566323717E0
4.849454833E0,-5.495290453E0,-6.763912302E0,-1.435234165E-1,8.716038421E0
4.859397833E0,-4.550260244E0,-4.813039085E0,7.082524744E-1,6.661218739E0
4.869340833E0,-2.445714306E0,-2.909074572E0,1.549190259E0,4.104171511E0
4.879283833E0,-1.409303518E0,-1.154678911E0,1.277757830E0,2.225328036E0
4.889226833E0,-9.806655539E-1,5.305588067E-2,1.205210695E0,1.554687324E0
4.899168833E0,-7.547488754E-1,1.143524178E0,1.297390003E0,1.886932492E0
4.909111833E0,-6.662083626E-1,2.746049522E0,1.262158921E0,3.094780557E0
4.919054833E0,-1.035847263E0,4.842415497E0,1.735812332E0,5.247381428E0
4.928997833E0,-1.791371260E0,6.992214498E0,2.326645992E0,7.583756071E0
4.938940833E0,-2.626356432E0,8.973231280E0,2.438953317E0,9.662562859E0
4.948883833E0,-3.003467928E0,1.051645826E1,1.813590241E0,1.108628988E1
4.958825833E0,-2.131571768E0,1.112307414E1,8.047280243E-1,1.135402852E1
4.968768833E0,-1.841986951E-1,1.052977354E1,1.341023827E-1,1.053223829E1
4.978711833E0,8.300478568E-1,9.200340060E0,-2.889084403E-1,9.242224015E0
4.988654833E0,4.374033058E-1,7.814410202E0,-5.492348135E-1,7.845889837E0
4.998599208E0,-4.095150107E-1,7.090885677E0,-4.913087869E-1,7.119673206E0
5.008542208E0,-1.405110480E0,7.032508246E0,2.336981530E-1,7.175313409E0
5.018485208E0,-2.271258827E0,7.421480818E0,1.263647768E0,7.863447073E0
5.028428208E0,-2.666560718E0,7.999114974E0,2.105522422E0,8.690777358E0
5.038370208E0,-2.545323379E0,8.495043646E0,2.744871308E0,9.283251378E0
5.048313208E0,-2.057626125E0,8.791884565E0,3.176188831E0,9.571793717E0
5.058256208E0,-1.504220346E0,8.688584729E0,3.547912118E0,9.504833710E0
5.068199208E0,-1.093780818E0,8.288506540E0,4.030038145E0,9.280996961E0
5.078142208E0,-7.660674039E-1,8.154715814E0,3.871347928E0,9.059447227E0
5.088085208E0,-2.908115628E-1,8.442914549E0,2.918604949E0,8.937876274E0
5.098028208E0,3.551308619E-1,8.798901224E0,1.819440965E0,8.992060170E0
5.107970208E0,4.520993321E-1,8.723283861E0,1.746145239E-1,8.736736540E0
5.117913208E0,-6.474002087E-1,7.231264461E0,-5.323094630E-1,7.279674862E0
5.127856208E0,-2.424331331E0,4.353180133E0,2.021595874E-1,4.986825460E0
5.137799208E0,-3.123824092E0,4.742542130E-1,1.250239956E-1,3.162091873E0
5.147742208E0,-1.521853064E0,-5.452891708E0,-2.714922161E0,6.278603911E0
5.157685208E0,2.010107265E0,-1.511916188E1,-6.272924527E0,1.649179097E1
5.167627208E0,6.024488613E0,-2.748865658E1,-8.113449090E0,2.928734811E1
5.177570208E0,9.700121462E0,-3.508702444E1,-6.473798604E0,3.697433852E1
5.187513208E0,1.280503040E1,-3.066063541E1,-4.857110719E0,3.358027534E1
5.197456208E0,1.014918996E1,-1.861177162E1,-6.548848786E0,2.218764341E1
5.207399208E0,8.496696069E0,-1.237011917E1,-9.007257982E0,1.750269662E1
5.217342208E0,5.380255256E0,-9.675635662E0,-6.574132147E0,1.287572466E1
5.227285208E0,2.221334568E0,-9.174566118E0,-5.086334437E0,1.072276964E1
5.237227208E0,1.028920505E0,-1.018012992E1,-4.611768567E0,1.122328525E1
5.247170208E0,1.465797561E-1,-9.941919032E0,-4.323945224E0,1.084249704E1
5.257113208E0,-6.166988182E-1,-7.675623030E0,-2.819500490E0,8.200310320E0
5.267056208E0,-9.965666914E-1,-4.190048663E0,-3.337479597E-1,4.319842667E0
5.276999208E0,-9.345104840E-1,-9.363140577E-1,1.370735576E0,1.904969784E0
5.286942208E0,-4.910585260E-1,1.673690636E0,2.480171363E0,3.032099737E0
5.296885208E0,-3.824507345E-1,3.830501618E0,3.228943580E0,5.024449010E0
5.306827208E0,-1.095503481E0,5.570862207E0,3.500706376E0,6.670050880E0
5.316770208E0,-2.213869574E0,6.784903221E0,3.237767029E0,7.837044439E0
5.326713208E0,-3.044122742E0,7.172870073E0,2.665792978E0,8.235484233E0
5.336656208E0,-3.428247680E0,7.056861314E0,2.208828982E0,8.150527543E0
5.346599208E0,-3.520795948E0,7.055733971E0,2.151300859E0,8.173584364E0
5.356542208E0,-3.561342587E0,7.491291311E0,2.457458147E0,8.651110164E0
5.366485208E0,-3.792878879E0,8.192281836E0,2.880335799E0,9.476061744E0
5.376427208E0,-3.910467263E0,8.904411891E0,3.473070973E0,1.032678688E1
5.386370208E0,-3.455943602E0,9.579787518E0,3.844464477E0,1.088557680E1
5.396313208E0,-2.585114559E0,1.025779615E1,3.912562612E0,1.127888936E1
5.406256208E0,-1.805531023E0,1.079313798E1,3.770761493E0,1.157455882E1
5.416199208E0,-1.409482297E0,1.095529179E1,3.461141192E0,1.157516984E1
5.426142208E0,-1.502428613E0,1.081882947E1,2.833004343E0,1.128407180E1
5.436085208E0,-1.892967655E0,1.029769521E1,2.274031576E0,1.071433958E1
5.446027208E0,-2.425184878E0,9.429028757E0,1.894877063E0,9.918601922E0
5.455970208E0,-2.863073941E0,8.466741952E0,1.554889247E0,9.071967386E0
5.465913208E0,-3.146807742E0,7.594896955E0,1.453115243E0,8.348437138E0
5.475856208E0,-3.077892458E0,6.923216769E0,1.622916339E0,7.748432735E0
5.485799208E0,-2.612075778E0,6.567100870E0,1.600998636E0,7.246581976E0
5.495742208E0,-1.336705219E0,6.440031518E0,1.277449097E0,6.700198728E0
5.505685208E0,5.912117554E-1,6.845776244E0,1.768712861E0,7.095246924E0
5.515627208E0,2.378824206E0,7.856378592E0,2.435503898E0,8.562310928E0
5.525570208E0,3.277705851E0,8.532761110E0,2.215455047E0,9.405296852E0
5.535513208E0,4.285444817E0,7.063075735E0,-1.363629747E0,8.373264728E0
5.545456208E0,5.380051773E0,3.875757898E0,-9.427684482E0,1.152595727E1
5.555399208E0,3.053578566E0,7.223088884E-1,-1.261192376E1,1.299641078E1
5.565342208E0,-2.034100145E-4,-5.822586595E0,-4.793046286E0,7.541605094E0
5.575285208E0,5.388369437E0,-1.734159968E1,-7.164783373E-1,1.817357823E1
5.585227208E0,1.333724046E1,-2.604133739E1,7.921474475E-1,2.926876720E1
5.595170208E0,7.907770940E0,-2.277014066E1,5.852583981E0,2.480453358E1
5.605113208E0,-7.769399505E0,-1.164128947E1,-2.582475418E-1,1.399820992E1
5.615056208E0,-1.206642883E1,-1.162166621E1,-6.511809599E0,1.797402277E1
5.624999208E0,-1.071819421E1,-1.979624210E1,-1.169069961E1,2.536618508E1
5.634942208E0,-9.877502596E0,-2.482939201E1,-9.300135659E0,2.829410342E1
5.644885208E0,-6.467366082E0,-2.405711750E1,-5.622905935E0,2.553798734E1
5.654827208E0,-1.572283691E0,-1.902351618E1,-3.366821803E0,1.938302692E1
5.664770208E0,2.236142496E0,-1.352812866E1,-5.512670133E-1,1.372277281E1
5.674713208E0,5.010309523E0,-1.007532092E1,-5.950863397E-1,1.126807086E1
5.684656208E0,5.465620512E0,-8.166392119E0,-2.005697587E0,1.002924676E1
5.694599208E0,3.816601910E0,-7.018250980E0,-2.868833449E0,8.488374539E0
5.704542208E0,2.585426508E0,-5.636946269E0,-2.881889404E0,6.838485213E0
5.714485208E0,2.492371579E0,-2.986533222E0,-1.546905459E0,4.186193172E0
5.724428208E0,2.492221890E0,3.152233958E-1,1.711319223E-1,2.517900291E0
5.734370208E0,1.883811354E0,3.417494650E0,1.139580231E0,4.065299252E0
5.744313208E0,7.930721846E-1,6.291157315E0,1.763119999E0,6.581505601E0
5.754256208E0,-5.633586167E-1,9.083232610E0,2.463337229E0,9.428176806E0
5.764199208E0,-2.194961433E0,1.167067290E1,3.156634865E0,1.228766883E1
5.774142208E0,-3.960112755E0,1.394765352E1,3.578952354E0,1.493413645E1
5.784085208E0,-5.876707839E0,1.568628216E1,3.767668024E0,1.716946317E1
5.794028208E0,-7.559135385E0,1.618371181E1,4.002911450E0,1.830509098E1
5.803970208E0,-7.421711199E0,1.376675821E1,3.089845337E0,1.594216337E1
5.813913208E0,-4.547552983E0,9.219887887E0,2.105389398E0,1.049377126E1
5.823856208E0,-2.608405188E0,7.061403431E0,1.265951571E0,7.633467719E0
5.833799208E0,-1.823066092E0,6.031851427E0,2.752644011E-1,6.307342713E0
5.843742208E0,-1.437824920E0,5.066052200E0,-2.234272264E-1,5.270877073E0
5.853685208E0,-1.327362538E0,4.593166235E0,-1.929955387E-1,4.785009368E0
5.863628208E0,-1.525157179E0,4.984361919E0,2.224374390E-1,5.217225946E0
5.873570208E0,-1.827427530E0,6.317586145E0,1.083171849E0,6.665181718E0
5.883513208E0,-2.047297311E0,8.102051112E0,2.057962632E0,8.606385344E0
5.893456208E0,-2.058500576E0,9.555944912E0,2.669306570E0,1.013305015E1
5.903399208E0,-2.072070502E0,1.041673165E1,3.286249510E0,1.111760812E1
5.913342208E0,-2.310121322E0,1.091621368E1,4.054750525E0,1.187187363E1
5.923285208E0,-2.647238009E0,1.122854153E1,4.380676664E0,1.234011111E1
5.933228208E0,-3.016961548E0,1.130644282E1,4.247560414E0,1.244907529E1
5.943170208E0,-3.272128484E0,1.081014519E1,4.930397966E0,1.232375300E1
5.953113208E0,-2.880039345E0,9.462857823E0,5.544994125E0,1.133963247E1
5.963056208E0,-1.876473975E0,7.835733243E0,4.815370955E0,9.386568461E0
5.972999208E0,-9.118642178E-1,6.699014640E0,2.413334472E0,7.178612455E0
5.982942208E0,7.771794525E-1,5.050268226E0,-1.822359895E0,5.424961994E0
5.992885000E0,2.559868328E0,2.159704185E0,-6.784358261E0,7.566027031E0
6.002828000E0,3.161345674E0,-2.886078642E0,-9.344792599E0,1.027855560E1
6.012770000E0,1.020369683E0,-1.101136776E1,-9.128516371E0,1.433949739E1
6.022713000E0,1.699097227E0,-2.379856064E1,-6.651762121E0,2.476902015E1
6.032656000E0,5.640761577E0,-3.803276748E1,-1.213683164E0,3.846794276E1
6.042599000E0,7.697712641E0,-3.767823443E1,-3.131294787E0,3.858379370E1
6.052542000E0,2.095372679E0,-2.062968317E1,-9.618833470E0,2.285817953E1
6.062485000E0,-1.437797000E0,-1.301661306E1,-9.359937472E0,1.609682905E1
6.072428000E0,-6.368043230E-1,-1.320132895E1,-6.997082305E0,1.495459015E1
6.082370000E0,4.765669329E-1,-1.443130713E1,-8.289656687E0,1.664956905E1
6.092313000E0,2.415546182E-1,-1.455687492E1,-8.560247701E0,1.688901408E1
6.102256000E0,3.421568406E-1,-1.230331590E1,-5.478946901E0,1.347247240E1
6.112199000E0,1.694019066E0,-8.912961105E0,-2.829609449E0,9.503539651E0
6.122142000E0,3.251605342E0,-5.884517965E0,-3.790673894E-1,6.733808808E0
6.132085000E0,4.322084055E0,-3.257544651E0,1.144954407E0,5.531991353E0
6.142028000E0,3.975282186E0,-6.457577258E-1,1.140344462E0,4.185720606E0
6.151971000E0,2.544773448E0,1.713662202E0,1.370560744E0,3.360200411E0
6.161913000E0,9.145688474E-1,3.583858461E0,2.087055746E0,4.246914095E0
6.171856000E0,-6.353167914E-1,5.069078718E0,2.820519368E0,5.835624729E0
6.181799000E0,-1.946919183E0,6.280375634E0,3.485922861E0,7.442128096E0
6.191742000E0,-2.947336412E0,7.451080593E0,3.994041516E0,8.953086706E0
6.201685000E0,-3.404978101E0,8.623914524E0,4.205352873E0,1.018090224E1
6.211628000E0,-3.182742391E0,9.756184566E0,4.111673169E0,1.105526312E1
6.221571000E0,-2.568905200E0,1.070918716E1,4.184599935E0,1.178120708E1
6.231513000E0,-2.255112910E0,1.136550905E1,4.303657432E0,1.236049342E1
6.241456000E0,-2.528089296E0,1.177587483E1,3.922127488E0,1.266671021E1
6.251399000E0,-2.829696573E0,1.174244864E1,3.657988584E0,1.262034719E1
6.261342000E0,-2.735215800E0,1.137313850E1,3.454352282E0,1.219681247E1
6.271285000E0,-2.420115635E0,1.106044578E1,2.685299875E0,1.163620453E1
6.281228000E0,-1.997294700E0,1.080580188E1,1.712768455E0,1.112151591E1
6.291171000E0,-1.516947396E0,1.042283966E1,1.205272237E0,1.060138656E1
6.301113000E0,-1.010152112E0,9.932203299E0,1.408009529E0,1.008223985E1
6.311056000E0,-5.916404293E-1,9.458636134E0,1.907483368E0,9.667177908E0
6.320999000E0,-5.876269005E-1,9.134834288E0,2.678053128E0,9.537424778E0
6.330942000E0,-8.778778616E-1,9.007985376E0,3.438132398E0,9.681695330E0
6.340885000E0,-1.097393155E0,8.913762174E0,4.110031271E0,9.876830710E0
6.350828000E0,-1.331245528E0,8.932490805E0,4.585501412E0,1.012859466E1
6.360771000E0,-1.685033942E0,8.895635805E0,4.461783392E0,1.009352202E1
6.370714000E0,-1.860600100E0,8.321021737E0,4.450839744E0,9.618274788E0
6.380656000E0,-1.343524973E0,6.969412111E0,3.546230751E0,7.934325243E0
6.390599000E0,1.924643192E-1,4.581347258E0,-7.680238822E-1,4.649262941E0
6.400542000E0,6.312873289E-1,7.438740045E-1,-5.995168920E0,6.074036763E0
6.410485000E0,-5.178494449E-1,-4.553906275E0,-5.989093663E0,7.541582944E0
6.420428000E0,1.857216901E0,-1.041568851E1,-6.572203735E0,1.245510673E1
6.430371000E0,7.680731742E0,-1.643376565E1,-4.104367950E0,1.859860559E1
6.440314000E0,7.196655377E0,-1.940273150E1,5.404084414E0,2.138836054E1
6.450256000E0,6.479675348E-1,-1.745832413E1,4.926687323E0,1.815172696E1
6.460199000E0,-1.628233797E0,-1.204134895E1,-1.881888643E0,1.229580151E1
6.470142000E0,1.201720346E0,-1.099040081E1,-6.399142524E0,1.277427363E1
6.480085000E0,1.823409031E0,-1.375426037E1,-6.478104494E0,1.531242426E1
6.490028000E0,-6.577266839E-1,-1.677001213E1,-3.393347404E0,1.712252078E1
6.499971000E0,-8.046746685E-1,-2.021439520E1,-5.571663276E0,2.098362948E1
6.509914000E0,1.192397253E0,-2.187225391E1,-6.433377972E0,2.282992892E1
6.519857000E0,8.715426958E-1,-1.981902519E1,-5.802283309E0,2.066929698E1
6.529799000E0,2.290157028E-1,-1.612132319E1,-4.298262791E0,1.668605923E1
6.539742000E0,7.076712611E-1,-1.251948279E1,-3.683839417E0,1.306938869E1
6.549685000E0,1.759764574E0,-9.204120285E0,-3.266602280E0,9.923874850E0
6.559628000E0,2.310469524E0,-6.124015825E0,-2.269229550E0,6.927571147E0
6.569571000E0,1.963608744E0,-3.278424473E0,-9.823389539E-1,3.945733918E0
6.579514000E0,1.105766952E0,-5.086387646E-1,4.652307898E-2,1.218030518E0
6.589457000E0,8.498971805E-2,2.089979061E0,1.004437628E0,2.320372961E0
6.599399000E0,-9.891427740E-1,4.518713053E0,1.926998450E0,5.011037229E0
6.609342000E0,-1.973255481E0,6.808880314E0,2.599038826E0,7.550469597E0
6.619285000E0,-2.710912726E0,8.888844264E0,3.087566384E0,9.792531151E0
6.629228000E0,-3.186888651E0,1.061248708E1,3.390970218E0,1.158791700E1
6.639171000E0,-3.671759654E0,1.209856980E1,3.308680891E0,1.306922260E1
6.649114000E0,-4.275967650E0,1.327505766E1,2.938968462E0,1.425302041E1
6.659057000E0,-4.943774056E0,1.384394262E1,2.724533814E0,1.495054293E1
6.669000000E0,-4.930412584E0,1.289151539E1,2.938593071E0,1.411153665E1
6.678942000E0,-3.382144724E0,1.052141670E1,2.752803640E0,1.138933888E1
6.688885000E0,-1.963323985E0,8.707991638E0,1.936821334E0,9.134278095E0
6.698828000E0,-1.506678370E0,7.658522263E0,1.285581405E0,7.910484341E0
6.708771000E0,-1.743545567E0,7.117121549E0,7.666819462E-1,7.367575687E0
6.718714000E0,-2.128569662E0,7.033805158E0,3.901306137E-1,7.359172895E0
6.728657000E0,-2.318421445E0,7.421667929E0,1.876286718E-1,7.777624147E0
6.738600000E0,-2.478272772E0,8.434813231E0,1.777962863E-1,8.793151978E0
6.748542000E0,-2.457395581E0,9.741483496E0,4.484288156E-1,1.005665860E1
6.758485000E0,-1.918588838E0,1.075548425E1,9.275423571E-1,1.096456836E1
6.768428000E0,-1.232776516E0,1.143891149E1,1.273016323E0,1.157536196E1
6.778371000E0,-6.774318007E-1,1.177476386E1,1.560881620E0,1.189707230E1
6.788314000E0,-4.521795121E-1,1.160419707E1,2.019749908E0,1.178733412E1
6.798257000E0,-6.877996449E-1,1.094112282E1,2.366825865E0,1.121530657E1
6.808200000E0,-9.526340751E-1,9.930004746E0,2.515260797E0,1.028781040E1
6.818143000E0,-1.161807252E0,8.700859789E0,2.567563848E0,9.145881110E0
6.828085000E0,-1.519096686E0,7.118159430E0,2.385823177E0,7.659503942E0
6.838028000E0,-1.702527642E0,4.814401487E0,2.361733671E0,5.626264123E0
6.847971000E0,-1.651675577E0,1.887546701E0,1.519842499E0,2.932709665E0
6.857914000E0,-1.154342550E0,-1.934099894E0,-1.338481457E0,2.620072849E0
6.867857000E0,-5.456329286E-3,-7.846362312E0,-6.026699445E0,9.893762555E0
6.877800000E0,8.056058376E-1,-1.669784228E1,-1.170206309E1,2.040600937E1
6.887743000E0,9.546708065E-1,-2.827954863E1,-1.185747857E1,3.067970119E1
6.897685000E0,3.559595147E0,-3.672249300E1,-5.117147509E0,3.724778393E1
6.907628000E0,6.282587636E0,-3.156263158E1,-5.192412284E-1,3.218602540E1
6.917571000E0,3.998952300E0,-1.844213922E1,-2.160271072E0,1.899396982E1
6.927514000E0,2.726076018E0,-1.200602592E1,-9.843626168E0,1.576303032E1
6.937457000E0,3.176583226E0,-1.066349468E1,-1.318170803E1,1.724987612E1
6.947400000E0,3.421404684E0,-1.101626305E1,-9.527565451E0,1.496123541E1
6.957343000E0,3.581593249E0,-1.143531428E1,-5.878411133E0,1.334728213E1
6.967286000E0,1.970989392E0,-1.030290859E1,-4.717358757E0,1.150166067E1
6.977228000E0,6.844450242E-1,-7.420724189E0,-3.470751091E0,8.220810520E0
6.987171000E0,1.225306917E0,-5.182472602E0,-9.430336779E-1,5.408207821E0
6.997113333E0,1.552472739E0,-3.171926211E0,1.712380493E0,3.924733678E0
7.007056333E0,1.311158588E0,-1.190783129E0,3.239102825E0,3.691732441E0
7.016999333E0,4.587773640E-1,6.234897745E-1,3.520213273E0,3.604319305E0
7.026942333E0,-6.907322428E-1,2.310781619E0,2.949168637E0,3.809779307E0
7.036885333E0,-1.557185449E0,3.775795653E0,2.019151154E0,4.556142087E0
7.046827333E0,-1.967712759E0,4.975678219E0,1.368779682E0,5.522936272E0
7.056770333E0,-2.219158381E0,5.968472287E0,1.482473236E0,6.537970041E0
7.066713333E0,-2.378248840E0,6.828104789E0,2.063970646E0,7.519245799E0
7.076656333E0,-2.350174603E0,7.755971375E0,2.757684019E0,8.560562702E0
7.086599333E0,-2.338998528E0,8.635538789E0,3.200675801E0,9.501987680E0
7.096542333E0,-2.360840071E0,9.426075329E0,3.889783322E0,1.046684653E1
7.106485333E0,-2.389027743E0,1.031891124E1,4.524871633E0,1.151789243E1
7.116428333E0,-2.134686288E0,1.110669959E1,4.779098045E0,1.227825067E1
7.126370333E0,-1.518523659E0,1.160429765E1,4.733143315E0,1.262411516E1
7.136313333E0,-7.262161441E-1,1.175408109E1,4.074347760E0,1.246138523E1
7.146256333E0,-8.812338710E-2,1.151539424E1,3.303212575E0,1.198012035E1
7.156199333E0,3.724676371E-3,1.090078405E1,3.029755840E0,1.131399696E1
7.166142333E0,-3.903604093E-1,1.014054778E1,2.972137377E0,1.057434117E1
7.176085333E0,-9.128040116E-1,9.538459398E0,2.615159307E0,9.932496013E0
7.186028333E0,-1.332727797E0,9.106826710E0,1.980790495E0,9.414562501E0
7.195971333E0,-1.670395876E0,8.760659848E0,1.413740678E0,9.029841974E0
7.205913333E0,-1.809914973E0,8.383730786E0,8.448877247E-1,8.618385543E0
7.215856333E0,-1.556929195E0,7.562077703E0,1.119095680E-1,7.721500597E0
7.225799333E0,-1.171357801E0,6.261024274E0,-7.084767151E-1,6.408934647E0
7.235742333E0,-6.418759055E-2,4.508022004E0,-1.704028037E0,4.819760782E0
7.245685333E0,2.081950688E0,1.706810435E0,-2.535935382E0,3.698471142E0
7.255628333E0,3.920076869E0,-2.430819109E0,-3.573753595E0,5.835032044E0
7.265571333E0,5.836426955E0,-7.746923393E0,-1.251669016E0,9.779845448E0
7.275514333E0,9.791764873E0,-1.289782337E1,2.094272672E0,1.632845630E1
7.285456333E0,1.098305320E1,-1.443133870E1,8.097797263E0,1.986115090E1
7.295399333E0,4.439091810E0,-8.889543591E0,7.868215696E0,1.267431811E1
7.305342333E0,-1.693403500E0,-2.861267737E0,5.507754378E0,6.433492579E0
7.315285333E0,-2.887133187E0,-4.721071154E0,2.376249384E0,6.022508781E0
7.325228333E0,-3.890496682E0,-1.287008184E1,-5.937212487E0,1.469780470E1
7.335171333E0,-5.789701270E0,-2.248669805E1,-1.133533742E1,2.583915835E1
7.345114333E0,-6.408654190E0,-2.721345386E1,-7.609647142E0,2.897498316E1
7.355056333E0,-4.077645882E0,-2.016879159E1,1.571918678E-1,2.057746485E1
7.364999333E0,-1.455808178E0,-8.979381967E0,4.340496060E0,1.007911623E1
7.374942333E0,-2.282508869E-1,-3.191526663E0,3.017852956E0,4.398338023E0
7.384885333E0,7.536752535E-1,-1.150439095E0,3.111206970E-1,1.410082475E0
7.394828333E0,1.721304513E0,-2.007398835E0,5.613329950E-1,2.703263591E0
7.404771333E0,1.495394559E0,-3.664417305E0,1.711731159E0,4.312097243E0
7.414714333E0,4.448460804E-1,-4.496790088E0,6.244928643E-1,4.561688335E0
7.424657333E0,-5.302698080E-1,-4.263685573E0,-2.164162686E-1,4.301980560E0
7.434599333E0,-1.120935945E0,-3.361337407E0,-6.289525357E-1,3.598703634E0
7.444542333E0,-8.941209881E-1,-2.196129999E0,-1.053774972E0,2.594779568E0
7.454485333E0,-1.317816228E-1,-6.637607181E-1,-9.110359597E-1,1.134870568E0
7.464428333E0,3.071412282E-1,1.308143764E0,-1.700509183E-1,1.354434626E0
7.474371333E0,5.887853801E-2,3.558396760E0,3.698366824E-1,3.578048820E0
7.484314333E0,-4.192906782E-1,5.802406685E0,3.851186728E-1,5.830269668E0
7.494257333E0,-8.798536357E-1,7.941022886E0,5.023226023E-1,8.005392863E0
7.504200333E0,-1.192593573E0,9.553063404E0,9.366492493E-1,9.672673449E0
7.514142333E0,-1.243884910E0,1.037837743E1,7.375294831E-1,1.047864101E1
7.524085333E0,-1.108733537E0,1.036488673E1,5.729949743E-2,1.042417624E1
7.534028333E0,-1.315746898E0,9.749418168E0,9.127503633E-3,9.837806047E0
7.543971333E0,-1.688087358E0,8.907924898E0,1.433526778E-1,9.067596976E0
7.553914333E0,-1.909370703E0,8.396116943E0,-2.831017166E-2,8.610532949E0
7.563857333E0,-2.221498290E0,8.542498478E0,-4.222436683E-1,8.836720241E0
7.573800333E0,-2.785815850E0,8.993596548E0,-1.825240526E-1,9.416945569E0
7.583743333E0,-3.509653201E0,9.577938044E0,1.297595387E0,1.028291382E1
7.593685333E0,-4.111500676E0,1.025066020E1,2.994574606E0,1.144324908E1
7.603628333E0,-4.277466876E0,1.070025496E1,3.932523252E0,1.217607975E1
7.613571333E0,-3.594810003E0,1.065762875E1,3.871269575E0,1.189514345E1
7.623514333E0,-2.252253914E0,1.021967932E1,3.238141251E0,1.095445351E1
7.633457333E0,-9.949059360E-1,9.695406268E0,2.630990643E0,1.009518956E1
7.643400333E0,-2.093807526E-2,8.708276982E0,2.410405017E0,9.035738971E0
7.653343333E0,7.407743224E-1,6.665825259E0,1.592759617E0,6.893392211E0
7.663285333E0,1.320405082E0,3.878272786E0,-1.730655965E-1,4.100539121E0
7.673228333E0,1.518266820E0,3.241760677E-1,-1.848548989E0,2.413992052E0
7.683171333E0,1.179148193E0,-4.141721426E0,-2.923595547E0,5.204964721E0
7.693114333E0,1.457486914E0,-1.086896701E1,-4.807159710E0,1.197361668E1
7.703057333E0,3.488113228E0,-2.112902135E1,-7.227038094E0,2.260160518E1
7.713000333E0,4.598425221E0,-3.084779075E1,-5.040858886E0,3.159338486E1
7.722943333E0,4.261684656E0,-3.163660353E1,-5.538953367E0,3.239933091E1
7.732886333E0,3.000227109E0,-2.318987718E1,-9.860544502E0,2.537719654E1
7.742828333E0,2.001264813E0,-1.722109558E1,-1.091920278E1,2.048902592E1
7.752771333E0,2.777705178E0,-1.473619382E1,-1.170530128E1,1.902327870E1
7.762714333E0,3.928654150E0,-1.261438544E1,-1.052324103E1,1.689069700E1
7.772657333E0,3.696236098E0,-9.612707927E0,-6.810020521E0,1.234676858E1
7.782600333E0,2.861401638E0,-5.640280352E0,-4.507433482E0,7.766423783E0
7.792543333E0,2.747461624E0,-2.418412487E0,-2.860181324E0,4.645201991E0
7.802486333E0,2.567115075E0,-5.909336472E-1,-4.369937083E-1,2.670252026E0
7.812429333E0,1.377038290E0,5.501867402E-1,1.407678284E0,2.044626629E0
7.822371333E0,-2.256786237E-1,1.146805050E0,2.280924274E0,2.562949123E0
7.832314333E0,-1.437926662E0,1.646431502E0,2.586623725E0,3.386590036E0
7.842257333E0,-1.943565366E0,2.389902633E0,2.629920895E0,4.050378358E0
7.852200333E0,-1.795559036E0,3.238683872E0,2.627897758E0,4.540809631E0
7.862143333E0,-1.352186454E0,4.115481461E0,2.568095360E0,5.035941783E0
7.872086333E0,-1.022119755E0,5.040977000E0,2.639049568E0,5.781069151E0
7.882029333E0,-8.463625386E-1,5.897298809E0,2.720986601E0,6.549674104E0
7.891972333E0,-4.691552947E-1,6.905671028E0,3.061423483E0,7.568402261E0
7.901914333E0,-1.183988079E-2,7.940120661E0,3.171883819E0,8.550234105E0
7.911857333E0,2.139554679E-1,8.934384134E0,3.321006821E0,9.534048621E0
7.921800333E0,1.078010219E-1,1.023550656E1,3.404422030E0,1.078736784E1
7.931743333E0,-3.392885620E-1,1.129089273E1,3.712597485E0,1.189044808E1
7.941686333E0,-9.209140997E-1,1.161512318E1,4.094785533E0,1.235015943E1
7.951629333E0,-1.118342632E0,1.109906547E1,3.730831150E0,1.176261219E1
7.961572333E0,-8.509375463E-1,1.010331973E1,2.920830984E0,1.055141781E1
7.971515333E0,-7.431379862E-1,9.156691765E0,2.167752585E0,9.439089437E0
7.981457333E0,-1.054453322E0,8.393053002E0,1.543256943E0,8.598654109E0
7.991400333E0,-1.354227132E0,7.738668879E0,1.250050507E0,7.955096065E0
8.001343958E0,-1.325416146E0,7.315993540E0,1.274836123E0,7.543586453E0
8.011286958E0,-1.117429297E0,7.303254796E0,1.602917254E0,7.560127153E0
8.021229958E0,-9.110339863E-1,7.512790353E0,1.891600138E0,7.800650800E0
8.031172958E0,-5.257200895E-1,7.678960036E0,1.962476139E0,7.943180814E0
8.041115958E0,-1.053538160E-1,7.649561990E0,1.685084228E0,7.833671356E0
8.051057958E0,4.578402016E-1,6.909073523E0,5.010829926E-1,6.942333813E0
8.061000958E0,1.610268519E0,4.884937618E0,-2.014892042E0,5.524071884E0
8.070943958E0,2.325665122E0,1.154880640E0,-3.304378217E0,4.202544819E0
8.080886958E0,3.057055321E0,-4.687605200E0,-7.537993607E-1,5.646896778E0
8.090829958E0,6.872115612E0,-1.191586068E1,1.958683927E0,1.389424887E1
8.100772958E0,1.080177899E1,-1.813706659E1,3.333687093E0,2.137159525E1
8.110715958E0,7.778899477E0,-1.550090321E1,2.945772282E0,1.759166995E1
8.120658958E0,3.035132355E0,-3.366515116E0,2.300292591E0,5.082991092E0
8.130600958E0,1.196241212E0,4.549643655E0,3.136320761E0,5.653915311E0
8.140543958E0,-2.828340896E0,5.727724292E0,4.999489836E0,8.111796127E0
8.150486958E0,-6.792593479E0,-2.513776481E-1,1.962118582E0,7.074773934E0
8.160429958E0,-7.446472403E0,-9.277227437E0,-3.770363298E0,1.247928442E1
8.170372958E0,-5.944137930E0,-1.812177261E1,-6.722181308E0,2.022174918E1
8.180315958E0,-3.589018921E0,-2.422032264E1,-5.506568563E0,2.509636195E1
8.190258958E0,-3.637039472E0,-2.072794212E1,-1.012222319E0,2.106894004E1
8.200201958E0,-4.090013328E0,-1.172373404E1,-3.252668658E-1,1.242094793E1
8.210143958E0,-3.477964801E0,-7.394037496E0,-1.534167592E0,8.313946106E0
8.220086958E0,-2.928142927E0,-6.401646886E0,-2.675948130E0,7.530989460E0
8.230029958E0,-1.966489814E0,-6.770422007E0,-2.910471764E0,7.627354864E0
8.239972958E0,-7.936343944E-1,-7.138296071E0,-2.828332125E0,7.719105451E0
8.249915958E0,7.161158100E-2,-6.735034073E0,-2.259525219E0,7.104313225E0
8.259858958E0,2.779963665E-1,-5.547335935E0,-1.030788983E0,5.649136561E0
8.269801958E0,1.914331627E-1,-4.098438581E0,-5.346343160E-1,4.137593420E0
8.279743958E0,2.246568958E-1,-2.771110103E0,-1.062421250E0,2.976283057E0
8.289686958E0,6.205079868E-2,-1.489757697E0,-1.472308728E0,2.095452526E0
8.299629958E0,-5.619310190E-1,-1.610200399E-1,-1.039114248E0,1.192246763E0
8.309572958E0,-1.354307385E0,1.295388063E0,-2.247890429E-1,1.887513931E0
8.319515958E0,-1.841227836E0,3.008801758E0,3.915280983E-1,3.549126966E0
8.329458958E0,-1.951988719E0,4.936561516E0,9.113553639E-1,5.386136664E0
8.339401958E0,-2.115068002E0,6.991540314E0,1.529982448E0,7.462974937E0
8.349344958E0,-2.557896647E0,8.825979679E0,2.080074463E0,9.421648599E0
8.359286958E0,-2.989641017E0,1.004728586E1,2.525902437E0,1.078267544E1
8.369229958E0,-2.918465785E0,1.071427307E1,2.527889028E0,1.138873623E1
8.379172958E0,-2.230658538E0,1.086880445E1,2.230890673E0,1.131740346E1
8.389115958E0,-8.882772808E-1,9.965789706E0,1.885131509E0,1.018134185E1
8.399058958E0,1.384148504E-1,8.370437726E0,1.675033303E0,8.537512692E0
8.409001958E0,3.833623154E-1,7.102374871E0,1.427010787E0,7.254450721E0
8.418944958E0,4.686721686E-1,6.507366884E0,9.122089112E-1,6.587685668E0
8.428886958E0,2.965213689E-1,6.564140425E0,3.068934524E-1,6.577997266E0
8.438829958E0,-1.360604690E-1,6.934221813E0,1.333611019E-1,6.936838602E0
8.448772958E0,-4.922579361E-1,7.466765165E0,3.900398357E-1,7.493132254E0
8.458715958E0,-6.671272525E-1,8.214134635E0,8.400028145E-1,8.283880208E0
8.468658958E0,-8.253760046E-1,9.003521612E0,1.480047226E0,9.161614855E0
8.478601958E0,-1.132713114E0,9.677221427E0,2.074499435E0,9.961686677E0
8.488544958E0,-1.314263167E0,9.944801710E0,2.577860795E0,1.035720691E1
8.498486958E0,-1.356809116E0,9.663418490E0,2.873995079E0,1.017263169E1
8.508429958E0,-1.359136893E0,8.555647112E0,2.883354132E0,9.130174240E0
8.518372958E0,-1.168030882E0,6.503766754E0,2.467923493E0,7.053646184E0
8.528315958E0,-7.186062853E-1,3.731577255E0,1.261283885E0,4.003985619E0
8.538258958E0,-9.605199225E-2,-1.339100093E-1,-5.392743739E-1,5.638924775E-1
8.548201958E0,3.671868704E-1,-5.402495141E0,-2.604663555E0,6.008831183E0
8.558144958E0,6.581889063E-1,-1.262379244E1,-4.585856631E0,1.344706024E1
8.568087958E0,1.149932653E0,-2.146670039E1,-3.736278124E0,2.181974668E1
8.578029958E0,2.066679954E0,-2.576377941E1,-1.244656743E0,2.587648867E1
8.587972958E0,3.636415866E0,-1.952211059E1,-2.747837308E0,2.004711780E1
8.597915958E0,4.044136074E0,-1.240772846E1,-5.248695828E0,1.406611425E1
8.607858958E0,3.384405549E0,-1.094861076E1,-5.293188461E0,1.262315819E1
8.617801958E0,2.621597384E0,-1.178290903E1,-5.286671739E0,1.317795949E1
8.627744958E0,2.729864721E0,-1.307152193E1,-4.833606959E0,1.420142962E1
8.637687958E0,2.310518494E0,-1.253932356E1,-4.945942204E0,1.367609138E1
8.647629958E0,1.240300567E0,-9.830581030E0,-4.848622316E0,1.103121966E1
8.657572958E0,9.286368828E-1,-7.276797899E0,-3.626599561E0,8.183298754E0
8.667515958E0,8.247270367E-1,-5.440453511E0,-2.678741930E0,6.119997338E0
8.677458958E0,8.607087553E-1,-3.993338973E0,-1.516623022E0,4.357490230E0
8.687401958E0,8.971168821E-1,-2.566321315E0,-3.415449294E-1,2.739977506E0
8.697344958E0,1.051098848E0,-1.179172897E0,2.891141161E-1,1.605878103E0
8.707287958E0,1.413966380E0,1.183838975E-1,5.981666529E-1,1.539843828E0
8.717229958E0,1.712538075E0,1.459578463E0,9.245152536E-1,2.432670221E0
8.727172958E0,1.484352238E0,2.811711999E0,1.463651633E0,3.500186000E0
8.737115958E0,6.040341876E-1,4.170573927E0,1.998800212E0,4.664091172E0
8.747058958E0,-3.589635656E-1,5.380249409E0,2.553569415E0,5.966293263E0
8.757001958E0,-1.073935587E0,6.396938708E0,2.965051721E0,7.132018942E0
8.766944958E0,-1.505977288E0,7.294538936E0,3.063380839E0,8.053730070E0
8.776887958E0,-1.573958187E0,8.112369109E0,3.095207526E0,8.824295244E0
8.786830958E0,-1.339433530E0,8.898056552E0,3.092374550E0,9.514844873E0
8.796772958E0,-1.092281811E0,9.687857512E0,3.093350158E0,1.022821969E1
8.806715958E0,-9.879785934E-1,1.042987152E1,3.027756093E0,1.090530277E1
8.816658958E0,-9.314629152E-1,1.098014947E1,2.740841991E0,1.135533005E1
8.826601958E0,-7.095923638E-1,1.126744423E1,2.318320434E0,1.152533862E1
8.836544958E0,-3.026159949E-1,1.120574675E1,1.938593040E0,1.137622431E1
8.846487958E0,2.062248641E-1,1.076406211E1,1.662504913E0,1.089364422E1
8.856430958E0,4.982191725E-1,1.003667316E1,1.520275777E0,1.016337882E1
8.866372958E0,3.117481032E-1,9.364656175E0,1.592136011E0,9.504150106E0
8.876315958E0,-2.664705542E-1,8.907645986E0,1.836004811E0,9.098795373E0
8.886258958E0,-8.307446256E-1,8.568356620E0,2.168555700E0,8.877471804E0
8.896201958E0,-1.193763381E0,8.330640407E0,2.410050091E0,8.754026619E0
8.906144958E0,-1.380444877E0,8.035135576E0,2.668717171E0,8.578524531E0
8.916087958E0,-1.453803753E0,7.416183826E0,2.966021482E0,8.118535048E0
8.926030958E0,-7.816813700E-1,6.201169835E0,2.149988890E0,6.609688746E0
8.935972958E0,9.059159915E-1,3.910923638E0,3.255090867E-1,4.027649892E0
8.945915958E0,1.914994409E0,3.340572774E-1,-2.858013761E0,3.456449118E0
8.955858958E0,1.734251418E0,-4.685664509E0,-6.293216704E0,8.035400199E0
8.965801958E0,1.709585524E0,-1.070457488E1,-6.519838411E0,1.264985766E1
8.975744958E0,4.004236721E0,-1.538027398E1,-1.159020761E0,1.593518335E1
8.985687958E0,6.166549056E0,-1.317916215E1,4.009613821E0,1.509283423E1
8.995630125E0,2.876891789E0,-3.588077227E0,6.124993479E0,7.659396169E0
9.005572125E0,-3.578059485E0,2.599769143E0,9.761043602E0,1.071630913E1
9.015515125E0,-5.537617863E0,-1.220429097E0,9.686699179E-1,5.752649840E0
9.025458125E0,-3.164651398E0,-9.713801608E0,-1.130039914E1,1.523390891E1
9.035401125E0,-2.235524153E0,-1.552615148E1,-1.008540854E1,1.864871077E1
9.045344125E0,-2.911285696E0,-1.774471491E1,-2.004246309E0,1.809329972E1
9.055287125E0,-3.443705087E0,-1.549242825E1,5.279486096E-1,1.587933146E1
9.065229125E0,-1.566626363E0,-1.091608504E1,-1.746198157E0,1.116532305E1
9.075172125E0,-1.252421845E0,-8.201739707E0,-1.416780353E0,8.416909247E0
9.085115125E0,-2.351222717E0,-7.576298132E0,-9.792060158E-1,7.992958530E0
9.095058125E0,-1.795524391E0,-8.076183615E0,-1.465155245E0,8.402102684E0
9.105001125E0,-8.977482352E-1,-8.092585639E0,-8.776387104E-1,8.189392159E0
9.114944125E0,-9.923724105E-1,-7.288594072E0,-2.879019883E-1,7.361473636E0
9.124887125E0,-1.312068122E0,-6.251553538E0,-6.700420895E-1,6.422803189E0
9.134830125E0,-1.121230572E0,-5.272826702E0,-1.336820556E0,5.554002937E0
9.144772125E0,-6.153377326E-1,-4.493458344E0,-2.071658565E0,4.986138549E0
9.154715125E0,-1.213417847E-1,-3.712795413E0,-2.181967750E0,4.308196476E0
9.164658125E0,2.720129107E-1,-2.701031808E0,-1.501431955E0,3.102234964E0
9.174601125E0,5.578484930E-1,-1.350661207E0,-7.830167279E-1,1.657888969E0
9.184544125E0,6.922110768E-1,5.627465594E-1,-1.893097463E-1,9.119638397E-1
9.194487125E0,6.563134119E-1,2.832260284E0,5.515456331E-1,2.959163429E0
9.204430125E0,2.820921949E-1,5.296992075E0,1.448211037E0,5.498637673E0
9.214372125E0,-4.911251843E-1,7.661006745E0,2.241316112E0,7.997232409E0
9.224315125E0,-1.446141561E0,9.579185255E0,2.846466680E0,1.009725151E1
9.234258125E0,-2.142839791E0,1.073859398E1,2.731402539E0,1.128581955E1
9.244201125E0,-1.858718466E0,1.128195702E1,2.509341953E0,1.170616015E1
9.254144125E0,-8.001652957E-1,1.098701644E1,2.240576732E0,1.124166264E1
9.264087125E0,3.635591117E-1,9.749073767E0,1.685672750E0,9.900409444E0
9.274029125E0,7.375788190E-1,8.268357620E0,1.361990919E0,8.412180425E0
9.283972125E0,6.458913347E-1,7.573746992E0,1.115785571E0,7.682694615E0
9.293915125E0,4.860910240E-1,7.391277026E0,1.022817766E0,7.477527448E0
9.303858125E0,2.050302780E-1,7.275816736E0,9.216778922E-1,7.336827430E0
9.313801125E0,-1.653197899E-2,7.215421430E0,9.137885365E-1,7.273072887E0
9.323744125E0,-3.512858791E-1,7.615329466E0,1.595268072E0,7.788550883E0
9.333687125E0,-1.110909140E0,8.679767713E0,2.114983217E0,9.002535236E0
9.343629125E0,-1.679262594E0,9.630297521E0,2.525037926E0,1.009645332E1
9.353572125E0,-2.126752201E0,9.885527315E0,2.857681932E0,1.050776243E1
9.363515125E0,-2.541118062E0,9.523976430E0,3.131205324E0,1.034252652E1
9.373458125E0,-2.769919902E0,8.469601825E0,3.248202847E0,9.484589242E0
9.383401125E0,-2.339109332E0,6.264331459E0,2.859834292E0,7.272684049E0
9.393344125E0,-1.158310251E0,3.517549281E0,1.865595962E0,4.146719652E0
9.403287125E0,1.098259127E-1,5.890262854E-1,5.179229736E-2,6.014117874E-1
9.413229125E0,1.006779365E0,-3.640974648E0,-2.238879870E0,4.391228091E0
9.423172125E0,1.147463154E0,-9.575924263E0,-4.582559971E0,1.067777379E1
9.433115125E0,1.317909198E0,-1.737137604E1,-5.364002920E0,1.822838768E1
9.443058125E0,2.208234759E0,-2.410447059E1,-3.306117764E0,2.443014977E1
9.453001125E0,3.688246463E0,-2.284584806E1,-3.044251673E0,2.334102406E1
9.462944125E0,4.301498055E0,-1.575544186E1,-5.789549242E0,1.732788833E1
9.472887125E0,5.319119108E0,-1.290545632E1,-7.159768217E0,1.568776950E1
9.482829125E0,5.271588262E0,-1.319527825E1,-8.000117186E0,1.630665158E1
9.492772125E0,3.673019144E0,-1.322286541E1,-8.128614428E0,1.595022294E1
9.502715125E0,2.269345033E0,-1.218835497E1,-7.127624903E0,1.430066294E1
9.512658125E0,1.270659311E0,-1.022875420E1,-5.504927834E0,1.168529922E1
9.522601125E0,2.005432709E0,-8.198489825E0,-4.408869307E0,9.522348676E0
9.532544125E0,3.639882973E0,-5.876516635E0,-3.745080522E0,7.861795210E0
9.542486125E0,4.634152586E0,-3.351576650E0,-2.996756786E0,6.456700973E0
9.552429125E0,4.860956433E0,-7.457550538E-1,-1.780890272E0,5.230355457E0
9.562372125E0,4.532034180E0,1.820096730E0,-2.040912151E-1,4.888122251E0
9.572315125E0,4.208336122E0,4.086954065E0,1.759359070E0,6.124429017E0
9.582258125E0,3.564145743E0,6.107331380E0,3.884363538E0,8.067893873E0
9.592201125E0,1.863201819E0,7.684992024E0,5.252722220E0,9.493245712E0
9.602144125E0,-5.340422854E-1,8.497724594E0,5.766287849E0,1.028331659E1
9.612086125E0,-2.918226049E0,8.692319346E0,5.601917939E0,1.074494967E1
9.622029125E0,-4.732321782E0,8.602568094E0,4.973821728E0,1.100626866E1
9.631972125E0,-5.730078381E0,8.757171984E0,4.659987046E0,1.145588664E1
9.641915125E0,-5.821026558E0,9.457830387E0,4.550361693E0,1.200169560E1
9.651858125E0,-4.973562697E0,1.022866181E1,4.343598300E0,1.217492072E1
9.661801125E0,-3.656622382E0,1.074888976E1,3.934635559E0,1.201627543E1
9.671743125E0,-2.176453241E0,1.112277944E1,2.758527187E0,1.166458929E1
9.681686125E0,-7.805922530E-1,1.115902282E1,1.634989378E0,1.130514506E1
9.691629125E0,1.529223040E-1,1.097540621E1,8.958408004E-1,1.101296770E1
9.701572125E0,4.344404485E-1,1.046748666E1,7.005563691E-1,1.049989498E1
9.711515125E0,1.313815270E-1,9.827807111E0,1.080616616E0,9.887911103E0
9.721458125E0,-5.223505584E-1,9.336215318E0,1.111258949E0,9.416616326E0
9.731400125E0,-9.046988936E-1,8.778075780E0,1.441594766E0,8.941548522E0
9.741343125E0,-1.145782884E0,8.362010134E0,1.998911747E0,8.673619779E0
9.751286125E0,-1.322279407E0,7.980268813E0,2.275845090E0,8.403129419E0
9.761229125E0,-8.464175756E-1,6.983854734E0,2.353852940E0,7.418306634E0
9.771172125E0,3.437540806E-1,5.120423119E0,1.365371340E0,5.310474431E0
9.781115125E0,1.185896830E0,1.518178673E0,-5.704565518E-1,2.009138734E0
9.791058125E0,1.097163067E0,-4.716683403E0,-1.208261626E0,4.991068551E0
9.801000125E0,2.944195873E0,-1.204489938E1,-1.777604868E0,1.252628314E1
9.810943125E0,8.326909298E0,-1.895243274E1,-5.069916040E0,2.131281713E1
9.820886125E0,1.041833379E1,-1.644019525E1,1.108351421E-1,1.946365801E1
9.830829125E0,5.421925439E0,-4.202944112E0,8.995631379E0,1.131297479E1
9.840772125E0,4.176864946E-1,3.156176736E0,1.043281033E1,1.090776993E1
9.850715125E0,-3.575392862E0,1.884085150E0,1.717130478E0,4.391098729E0
9.860657125E0,-5.016352036E0,-6.436767603E0,-7.966011547E0,1.140408282E1
9.870600125E0,-4.111417061E0,-1.389264993E1,-8.641202987E0,1.686949499E1
9.880543125E0,-4.466830709E0,-1.690449458E1,-2.568605238E0,1.767235826E1
9.890486125E0,-6.290580195E0,-1.661085443E1,-3.958468518E-1,1.776650159E1
9.900429125E0,-3.526830859E0,-1.437126324E1,-2.135915080E0,1.495104934E1
9.910372125E0,3.656709798E-2,-1.060668196E1,-5.368588892E-1,1.062032282E1
9.920314125E0,-4.482056712E-1,-7.973131701E0,1.342551996E0,8.097787557E0
9.930257125E0,-1.995385438E0,-7.350902002E0,-2.344417727E-1,7.620517452E0
9.940200125E0,-2.265386176E0,-7.789419787E0,-1.888265617E0,8.329020481E0
9.950143125E0,-1.981989613E0,-7.933774093E0,-1.502806051E0,8.314534275E0
9.960086125E0,-1.976628155E0,-7.191697522E0,-1.149253864E0,7.546413490E0
9.970029125E0,-1.371636632E0,-5.959223746E0,-1.568234932E0,6.312930818E0
9.979972125E0,-1.946355365E-1,-4.293389429E0,-1.939284327E0,4.715071525E0
9.989914125E0,9.072007710E-1,-2.301402100E0,-1.450051010E0,2.867422675E0
9.999857125E0,1.421058322E0,-3.340888524E-1,-9.906542793E-1,1.764204641E0
1.000980013E1,1.392345715E0,1.253136082E0,-6.567814815E-1,1.985028601E0
1.001974313E1,9.863748483E-1,2.524485072E0,5.686037153E-2,2.710939564E0
1.002968613E1,2.152999621E-1,3.961951119E0,1.079472169E0,4.112015432E0
1.003962913E1,-4.666566333E-1,5.533947566E0,1.892079463E0,5.867052818E0
1.004957113E1,-8.759196290E-1,7.194976056E0,2.432003170E0,7.645230871E0
1.005951413E1,-1.062945307E0,8.802629993E0,2.832955811E0,9.308156968E0
1.006945713E1,-1.044232462E0,1.012648055E1,2.872836160E0,1.057776996E1
1.007940013E1,-7.989005430E-1,1.106754664E1,2.491337499E0,1.137258076E1
1.008934313E1,-2.063441473E-1,1.104807073E1,2.128941983E0,1.125321460E1
1.009928613E1,6.596675210E-1,9.863759301E0,1.758042277E0,1.004089744E1
1.010922813E1,1.152516026E0,8.484643203E0,1.171438200E0,8.642322080E0
1.011917112E1,8.931703039E-1,7.728329832E0,4.630423231E-1,7.793538566E0
1.012911413E1,1.087310216E-1,7.425137667E0,-1.207461727E-1,7.426915339E0
1.013905713E1,-7.751422825E-1,7.357477196E0,-2.393043172E-1,7.402066117E0
1.014900013E1,-1.298703726E0,7.381594622E0,1.338440819E-1,7.496164670E0
1.015894313E1,-1.387292406E0,7.475924828E0,5.728701362E-1,7.625104094E0
1.016888513E1,-1.179063847E0,7.698400859E0,7.984361279E-1,7.828988925E0
1.017882813E1,-9.558181764E-1,8.033519406E0,1.082960180E0,8.162341893E0
1.018877113E1,-9.821002413E-1,8.275015844E0,1.448406480E0,8.458031061E0
1.019871412E1,-1.292398966E0,8.309505646E0,1.739061338E0,8.587346127E0
1.020865713E1,-1.597737205E0,7.947092296E0,2.014234522E0,8.352615210E0
1.021860013E1,-1.559545824E0,6.871932009E0,2.097787726E0,7.352302093E0
1.022854212E1,-1.236239676E0,5.108636302E0,1.845658418E0,5.570718840E0
1.023848513E1,-6.820839916E-1,2.765010288E0,1.174743339E0,3.080672390E0
1.024842813E1,6.173417196E-2,-5.725383067E-1,1.708272824E-1,6.006606205E-1
1.025837113E1,3.816604833E-1,-4.751905276E0,-1.310298170E0,4.944001393E0
1.026831413E1,9.017928274E-1,-1.031022228E1,-3.971107859E0,1.108528806E1
1.027825712E1,2.091435603E0,-1.733891113E1,-5.630343593E0,1.834973327E1
1.028819913E1,2.955078710E0,-2.339506534E1,-5.130901914E0,2.413271072E1
1.029814213E1,3.301942559E0,-2.424582118E1,-6.260154793E0,2.525771580E1
1.030808512E1,3.623011417E0,-1.982786618E1,-1.015217438E1,2.256849870E1
1.031802813E1,4.222888673E0,-1.646187205E1,-1.104779474E1,2.027016992E1
1.032797113E1,4.194003135E0,-1.486381398E1,-9.300482984E0,1.802835578E1
1.033791413E1,3.304370323E0,-1.214771448E1,-7.857620541E0,1.484008190E1
1.034785613E1,2.088970563E0,-7.814523638E0,-7.015389352E0,1.070729963E1
1.035779913E1,6.660889332E-1,-3.654418566E0,-6.121521403E0,7.160410170E0
1.036774213E1,-4.688706815E-1,-6.984651124E-1,-5.070190859E0,5.139506647E0
1.037768513E1,-1.011622833E0,8.334147567E-1,-3.675536370E0,3.902246599E0
1.038762812E1,-8.249162672E-1,1.236629977E0,-2.101308919E0,2.573954102E0
1.039757113E1,-3.238477466E-1,1.089758445E0,-4.961561286E-1,1.240411922E0
1.040751313E1,1.023489319E-1,1.262478179E0,6.222314537E-1,1.411204605E0
1.041745612E1,2.465471171E-1,2.074781563E0,1.552904702E0,2.603270449E0
1.042739913E1,-1.936685532E-2,3.143649076E0,2.784121620E0,4.199313966E0
1.043734213E1,-8.540435873E-1,4.269292468E0,3.933486289E0,5.867585791E0
1.044728513E1,-2.030460838E0,5.389806683E0,4.676275635E0,7.418917786E0
1.045722813E1,-2.946396180E0,6.251071728E0,4.936051054E0,8.492452426E0
1.046717013E1,-3.605678808E0,6.916235778E0,4.711224443E0,9.112127784E0
1.047711313E1,-3.818584408E0,7.352130502E0,4.275789310E0,9.322970772E0
1.048705613E1,-3.605454859E0,7.569881982E0,4.079606746E0,9.324462943E0
1.049699913E1,-3.094307639E0,7.656281025E0,4.006012813E0,9.178317796E0
1.050694213E1,-2.458847153E0,7.883673395E0,3.938450283E0,9.149296484E0
1.051688513E1,-1.509106426E0,8.366921210E0,4.108644604E0,9.442654988E0
1.052682713E1,-3.274309203E-2,9.059653128E0,4.594549102E0,1.015816265E1
1.053677013E1,1.608782596E0,9.892139347E0,4.518466009E0,1.099359529E1
1.054671313E1,2.932735915E0,1.086557445E1,3.074376528E0,1.166676644E1
1.055665613E1,3.496403995E0,1.191517071E1,1.618256693E0,1.252257516E1
1.056659913E1,2.765492098E0,1.270409342E1,1.689883623E0,1.311097414E1
1.057654213E1,1.044411095E0,1.269631195E1,2.667814653E0,1.301554327E1
1.058648413E1,-6.786495564E-1,1.188290578E1,3.178729447E0,1.231942920E1
1.059642713E1,-1.921686401E0,1.077978644E1,3.146952753E0,1.139297968E1
1.060637013E1,-2.327030739E0,9.277500502E0,3.006016145E0,1.002612690E1
1.061631313E1,-1.116554626E0,6.895015647E0,1.237585412E0,7.093627610E0
1.062625613E1,9.591114745E-1,3.582688433E0,-3.104782634E0,4.836861217E0
1.063619913E1,1.314968926E0,-2.625447190E0,-2.663745283E0,3.964549806E0
1.064614113E1,1.814704135E0,-1.201454063E1,-1.350939827E0,1.222568510E1
1.065608413E1,7.590846004E0,-2.192528114E1,-5.766897129E0,2.390807392E1
1.066602713E1,9.234258589E0,-2.315179076E1,-7.134392470E-1,2.493563600E1
1.067597013E1,2.234748958E0,-9.737478738E0,5.258063067E0,1.128981055E1
1.068591313E1,-2.649736817E0,6.097932565E-1,6.289466300E0,6.852031768E0
1.069585613E1,-4.382653608E0,1.553408732E0,4.112241811E0,6.207355640E0
1.070579813E1,-6.307942332E0,-4.438800911E0,-5.123298780E0,9.259658762E0
1.071574113E1,-7.419291621E0,-1.028843556E1,-1.101638116E1,1.680054905E1
1.072568413E1,-7.300901876E0,-1.314061146E1,-4.103056420E0,1.558248727E1
1.073562713E1,-8.149438117E0,-1.417437930E1,-2.882013658E-1,1.635265820E1
1.074557013E1,-6.153192846E0,-1.375385223E1,-2.107567486E0,1.521420633E1
1.075551213E1,-3.389120744E0,-1.193356722E1,-1.219202936E0,1.246525659E1
1.076545513E1,-2.086660620E0,-1.030272147E1,3.334178844E-1,1.051719496E1
1.077539812E1,-1.379472632E0,-8.820552878E0,3.126438966E-1,8.933243757E0
1.078534113E1,-5.852527848E-1,-7.775916227E0,-9.542351890E-1,7.856077825E0
1.079528413E1,1.624087536E-1,-7.282695985E0,-2.040001155E0,7.564763191E0
1.080522713E1,1.480485767E-2,-6.654761742E0,-2.001411871E0,6.949224598E0
1.081516913E1,-9.627946356E-1,-5.639432505E0,-1.629233086E0,5.948493334E0
1.082511213E1,-1.556113508E0,-4.250915254E0,-1.300564603E0,4.709908495E0
1.083505513E1,-1.445364320E0,-2.479821700E0,-9.363146424E-1,3.019151999E0
1.084499813E1,-1.123329649E0,-6.460074019E-1,-5.874557233E-1,1.422778722E0
1.085494112E1,-8.209878154E-1,9.711523533E-1,-2.124682286E-1,1.289302383E0
1.086488413E1,-6.048783794E-1,2.551138435E0,2.161715627E-2,2.621955848E0
1.087482613E1,-4.382703017E-1,4.215380555E0,3.576509388E-1,4.253166853E0
1.088476912E1,-5.240455931E-1,5.835860944E0,9.098103833E-1,5.929557461E0
1.089471213E1,-8.339103082E-1,7.408285992E0,1.604794064E0,7.625842361E0
1.090465513E1,-1.154855935E0,8.957664823E0,2.296364285E0,9.319159846E0
1.091459813E1,-1.483906827E0,1.031625661E1,2.662340198E0,1.075709929E1
1.092454113E1,-1.637152116E0,1.115341183E1,2.651414090E0,1.158053795E1
1.093448313E1,-1.202923703E0,1.121117998E1,2.330046440E0,1.151376126E1
1.094442613E1,-1.522557946E-1,1.039706981E1,1.710721199E0,1.053796989E1
1.095436913E1,7.605627619E-1,9.036526805E0,1.030221072E0,9.126808197E0
1.096431212E1,1.184848497E0,7.788646200E0,2.937828255E-1,7.883729063E0
1.097425513E1,1.200571002E0,7.285317877E0,-1.961938195E-1,7.386184354E0
1.098419813E1,6.917988481E-1,7.424079321E0,-2.040535006E-1,7.459033265E0
1.099414013E1,1.970292404E-2,7.771052513E0,3.852540359E-2,7.771172986E0
1.100408338E1,-5.093752214E-1,8.171866282E0,3.907916415E-1,8.197047014E0
1.101402638E1,-8.576598709E-1,8.495452366E0,8.178731498E-1,8.577715771E0
1.102396938E1,-1.047001485E0,8.688064327E0,1.318801776E0,8.849740786E0
1.103391238E1,-1.143220049E0,8.697016414E0,1.757810727E0,8.946225190E0
1.104385537E1,-1.333614089E0,8.481402091E0,2.114680039E0,8.842204456E0
1.105379738E1,-1.656224711E0,8.096281664E0,2.367939029E0,8.596510474E0
1.106374038E1,-1.943204301E0,7.176042187E0,2.627289648E0,7.885066602E0
1.107368337E1,-2.004455346E0,5.460550391E0,2.747435019E0,6.433028136E0
1.108362638E1,-1.732090287E0,2.976834446E0,2.319990107E0,4.152593668E0
1.109356938E1,-7.514666140E-1,-4.931395501E-1,1.229668282E0,1.523145683E0
1.110351137E1,9.208538003E-1,-4.978293679E0,-1.528254595E-1,5.065050374E0
1.111345438E1,3.214425529E0,-1.103701949E1,-2.224144886E0,1.170876387E1
1.112339738E1,5.965807711E0,-1.896492357E1,-4.438615847E0,2.037057923E1
1.113334038E1,8.787837707E0,-2.429122130E1,-4.463905347E0,2.621480450E1
1.114328338E1,1.096376324E1,-2.243469291E1,-6.016032954E0,2.568486330E1
1.115322637E1,8.952846133E0,-1.492390698E1,-8.022496235E0,1.916342608E1
1.116316838E1,6.904978718E0,-1.094119766E1,-7.925138340E0,1.517222314E1
1.117311138E1,4.731857513E0,-1.145168532E1,-7.539876410E0,1.450452717E1
1.118305437E1,7.950134602E-1,-1.074641755E1,-7.104132544E0,1.290682904E1
1.119299738E1,-2.099594223E0,-9.850500154E0,-5.273203263E0,1.136869922E1
1.120294038E1,-3.172632847E0,-8.891116492E0,-2.608509268E0,9.793971220E0
1.121288338E1,-2.047902205E0,-7.872108772E0,-9.164931661E-1,8.185594644E0
1.122282538E1,3.454201716E-1,-7.163696961E0,-7.627821457E-1,7.212468776E0
1.123276838E1,2.873702133E0,-6.474714863E0,-5.364890528E-1,7.104077492E0
1.124271138E1,4.833417801E0,-5.105677026E0,2.016397700E-1,7.033528569E0
1.125265438E1,5.705596674E0,-3.184025854E0,7.954742208E-1,6.582145037E0
1.126259738E1,5.610054924E0,-8.191808796E-1,8.606309143E-1,5.734497287E0
1.127254038E1,4.826200583E0,1.562856663E0,8.148448768E-1,5.137967029E0
1.128248238E1,3.280927666E0,3.479016715E0,1.299560343E0,4.955491978E0
1.129242538E1,1.396991913E0,5.070647526E0,2.027044602E0,5.636662360E0
1.130236838E1,-2.749056745E-1,6.510288153E0,2.877963584E0,7.123348886E0
1.131231138E1,-1.601806721E0,7.541856862E0,3.663830245E0,8.536336554E0
1.132225438E1,-2.355628740E0,8.125331216E0,3.888837827E0,9.310910470E0
1.133219738E1,-2.522748449E0,8.426490889E0,3.652942729E0,9.524389693E0
1.134213938E1,-2.509947724E0,8.792659906E0,3.307360590E0,9.723648485E0
1.135208238E1,-2.500308589E0,9.324211569E0,3.085459048E0,1.013471864E1
1.136202538E1,-2.379190095E0,9.959128557E0,3.024390435E0,1.067669072E1
1.137196838E1,-2.062494955E0,1.068513873E1,2.929686592E0,1.126983313E1
1.138191138E1,-1.734051005E0,1.146531868E1,2.753532496E0,1.191815450E1
1.139185438E1,-1.613445019E0,1.217205761E1,2.475432780E0,1.252557219E1
1.140179638E1,-1.795356868E0,1.261860479E1,2.154612429E0,1.292651723E1
1.141173938E1,-2.077178045E0,1.254706527E1,1.799858347E0,1.284457106E1
1.142168238E1,-2.344306484E0,1.190344237E1,1.437910143E0,1.221700858E1
1.143162538E1,-2.798630024E0,1.089228687E1,9.538817248E-1,1.128645798E1
1.144156838E1,-3.323910841E0,9.629303495E0,5.883000612E-1,1.020382115E1
1.145151138E1,-3.596360393E0,8.050278695E0,8.614015773E-2,8.817494841E0
1.146145337E1,-3.779768252E0,6.229247580E0,-7.742574526E-1,7.327322025E0
1.147139638E1,-3.691522658E0,4.082976789E0,-1.297239437E0,5.655163052E0
1.148133938E1,-2.495297526E0,1.132209231E0,-2.633127216E0,3.800232416E0
1.149128238E1,-2.080889565E-1,-3.334968803E0,-7.304368690E0,8.032379466E0
1.150122538E1,2.603543228E0,-9.150576162E0,-6.679193748E0,1.162424667E1
1.151116838E1,8.105087571E0,-1.497075721E1,-3.323636022E0,1.734539052E1
1.152111038E1,1.222666475E1,-1.660216312E1,1.161675982E0,2.065121407E1
1.153105338E1,4.694319558E0,-7.715901575E0,8.752411766E0,1.257682332E1
1.154099637E1,-3.533192630E0,1.810198563E0,1.069483576E1,1.140788240E1
1.155093938E1,-6.939776083E0,3.971986696E0,8.851410974E0,1.192831282E1
1.156088238E1,-8.493550851E0,-2.014082787E0,-6.280735822E0,1.075381690E1
1.157082538E1,-8.153529414E0,-1.102162611E1,-1.046871457E1,1.724964547E1
1.158076738E1,-5.859860841E0,-1.785988284E1,-7.971387477E0,2.041706155E1
1.159071038E1,-4.195970138E0,-2.102203134E1,-2.709980972E0,2.160731274E1
1.160065338E1,-2.903277057E0,-1.884717585E1,1.461198142E0,1.912537987E1
1.161059638E1,-2.057101045E0,-1.204501632E1,-1.754457057E-1,1.222067364E1
1.162053937E1,-5.993985151E-1,-7.826084168E0,-2.633621306E0,8.279059920E0
1.163048138E1,-1.936977893E-2,-6.525448229E0,-2.106141350E0,6.856944011E0
1.164042438E1,9.243775517E-2,-6.751158355E0,-1.657589743E0,6.952286504E0
1.165036737E1,1.288334566E-1,-7.086339467E0,-1.514542290E0,7.247526713E0
1.166031038E1,1.102601416E-1,-6.763657363E0,-1.118956516E0,6.856477369E0
1.167025338E1,2.214403425E-1,-6.112447109E0,-1.025561572E0,6.201840212E0
1.168019638E1,5.072958054E-1,-5.161392805E0,-1.055370677E0,5.292554392E0
1.169013838E1,8.788230640E-1,-4.227327002E0,-1.570960320E0,4.594620755E0
1.170008138E1,1.123006444E0,-3.194438576E0,-2.119215578E0,3.994578320E0
1.171002438E1,1.033462622E0,-1.562159091E0,-1.668131104E0,2.508196044E0
1.171996738E1,5.335480495E-1,4.811422330E-1,-4.006241731E-1,8.226002052E-1
1.172991037E1,2.397358418E-2,2.629055507E0,5.301160263E-1,2.682075799E0
1.173985338E1,-4.200290354E-1,4.569244106E0,8.735421512E-1,4.670919822E0
1.174979538E1,-8.992454879E-1,6.433338795E0,1.123215336E0,6.592276025E0
1.175973838E1,-1.645726620E0,8.256497712E0,1.825601299E0,8.614580122E0
1.176968138E1,-2.419689080E0,9.825288130E0,2.722285560E0,1.047864594E1
1.177962438E1,-3.252510783E0,1.117757954E1,3.516370482E0,1.216067318E1
1.178956738E1,-3.560464920E0,1.195968790E1,3.804677975E0,1.304555939E1
1.179951038E1,-3.128578755E0,1.212347426E1,3.404203929E0,1.297517775E1
1.180945238E1,-1.900518018E0,1.118031487E1,2.448255799E0,1.160195526E1
1.181939538E1,-7.380342440E-1,9.414318332E0,1.508350966E0,9.562907865E0
1.182933838E1,-2.068967092E-1,7.926994246E0,7.919971740E-1,7.969146978E0
1.183928138E1,-1.569220188E-1,7.101784303E0,4.386125100E-1,7.117046138E0
1.184922438E1,-3.962017778E-1,6.871273613E0,5.020723414E-1,6.900974826E0
1.185916738E1,-7.075598717E-1,7.185903516E0,8.576871336E-1,7.271415099E0
1.186910938E1,-8.519469219E-1,7.915296891E0,1.393162279E0,8.081994777E0
1.187905238E1,-8.079779068E-1,8.875421396E0,1.957868240E0,9.124646914E0
1.188899538E1,-8.559971420E-1,9.734916489E0,2.385259651E0,1.005936349E1
1.189893838E1,-1.079503598E0,1.015793974E1,2.788559364E0,1.058891548E1
1.190888138E1,-1.333488227E0,9.951603191E0,3.239422960E0,1.055018758E1
1.191882338E1,-1.641733118E0,9.006732318E0,3.309300988E0,9.734885089E0
1.192876638E1,-1.920817066E0,7.382810842E0,2.787745432E0,8.122004600E0
1.193870938E1,-2.015840899E0,4.979452597E0,1.900082839E0,5.698146847E0
1.194865238E1,-2.116993636E0,1.968398491E0,8.212996182E-1,3.005126909E0
1.195859538E1,-1.969311972E0,-2.008503374E0,-6.293244186E-1,2.882416464E0
1.196853838E1,-1.351750544E0,-7.277139376E0,-2.990390923E0,7.982883245E0
1.197848038E1,-3.469920494E-2,-1.392545515E1,-5.610429146E0,1.501320820E1
1.198842338E1,2.086680647E0,-2.142161134E1,-6.514967680E0,2.248742921E1
1.199836600E1,5.355476511E0,-2.575066060E1,-5.697141016E0,2.691161582E1
1.200830900E1,7.454126993E0,-2.193330118E1,-7.623920780E0,2.438765832E1
1.201825200E1,6.143829700E0,-1.384549447E1,-1.045273881E1,1.840391559E1
1.202819500E1,5.609594164E0,-1.042736774E1,-9.407303427E0,1.512266188E1
1.203813700E1,4.403180258E0,-9.764841954E0,-7.821371312E0,1.326325691E1
1.204808000E1,2.539866757E0,-9.079087518E0,-6.226664280E0,1.129832295E1
1.205802300E1,9.327648709E-1,-8.504636003E0,-4.123607921E0,9.497527369E0
1.206796600E1,2.050294009E-1,-8.273266357E0,-2.603099717E0,8.675546173E0
1.207790900E1,6.618624926E-1,-8.176392027E0,-2.096643718E0,8.466839045E0
1.208785200E1,1.391689366E0,-7.640478340E0,-1.814298046E0,7.975298487E0
1.209779400E1,1.940235085E0,-6.387786646E0,-1.315889278E0,6.804402620E0
1.210773700E1,2.091988457E0,-4.433844811E0,-8.612969121E-1,4.977672939E0
1.211768000E1,1.864764195E0,-2.102536542E0,-5.882497752E-1,2.871244192E0
1.212762300E1,1.754630134E0,-3.108262897E-2,-7.973391902E-1,1.927548397E0
1.213756600E1,1.550177269E0,1.640029385E0,-8.735386428E-1,2.419879276E0
1.214750800E1,8.801660232E-1,3.069508136E0,-4.852414235E-1,3.229865580E0
1.215745100E1,6.425110593E-2,4.378399758E0,4.383906081E-1,4.400761181E0
1.216739400E1,-7.336071709E-1,5.557038805E0,1.633232582E0,5.838348091E0
1.217733700E1,-1.430070781E0,6.655186250E0,2.790032278E0,7.356689920E0
1.218728000E1,-1.777453571E0,7.755802975E0,3.518915775E0,8.700263744E0
1.219722300E1,-1.825316247E0,8.792078692E0,3.717128200E0,9.718511676E0
1.220716500E1,-1.781043469E0,9.830610266E0,3.540128889E0,1.059931727E1
1.221710800E1,-1.737634617E0,1.087086501E1,3.127508422E0,1.144449165E1
1.222705100E1,-1.705304338E0,1.180272408E1,2.943437781E0,1.228316671E1
1.223699400E1,-1.751692347E0,1.258143638E1,2.962710204E0,1.304371953E1
1.224693700E1,-1.694932109E0,1.305534385E1,3.243423625E0,1.355856168E1
1.225688000E1,-1.346134878E0,1.315171649E1,3.874781413E0,1.377656186E1
1.226682200E1,-6.671571464E-1,1.283653753E1,4.033240957E0,1.347177891E1
1.227676500E1,1.081348979E-1,1.194614458E1,3.462233452E0,1.243821225E1
1.228670800E1,6.976944494E-1,1.062640345E1,3.471847444E0,1.120093534E1
1.229665100E1,7.909446752E-1,9.479958590E0,3.976232944E0,1.031046249E1
1.230659400E1,4.173018940E-1,8.476945928E0,4.231641954E0,9.483646280E0
1.231653600E1,-2.143268392E-1,7.251835551E0,3.870393662E0,8.222834180E0
1.232647900E1,-8.556376845E-1,5.820312613E0,3.030359273E0,6.617494396E0
1.233642200E1,-7.532795432E-1,4.247023932E0,1.192364216E-1,4.314957668E0
1.234636500E1,7.460145240E-1,2.174388882E0,-4.820817929E0,5.340860434E0
1.235630800E1,1.962939823E0,-4.974179578E-1,-2.865359033E0,3.508680630E0
1.236625100E1,3.719126778E0,-3.440283004E0,1.670897421E-1,5.069060083E0
1.237619300E1,7.177677069E0,-6.869847477E0,-1.820737000E0,1.010093737E1
1.238613600E1,7.566152043E0,-9.044020012E0,2.626264046E0,1.208048913E1
1.239607900E1,4.681011295E0,-8.924519881E0,6.349317230E0,1.191103485E1
1.240602200E1,1.421672279E0,-6.846373245E0,2.137200883E0,7.311744408E0
1.241596500E1,-1.328022250E0,-5.520707130E0,-1.844635155E0,5.970303943E0
1.242590700E1,-3.299613613E0,-7.717580311E0,-7.178033749E0,1.104412352E1
1.243585000E1,-4.859734949E0,-1.139483167E1,-9.898373648E0,1.585676554E1
1.244579300E1,-4.581218327E0,-1.556782108E1,-8.895358647E0,1.850599957E1
1.245573600E1,-3.388534853E0,-1.656275289E1,-1.701347089E0,1.699121931E1
1.246567900E1,-3.565925927E0,-1.145132747E1,5.003231469E-1,1.200412645E1
1.247562200E1,-3.382371596E0,-6.804218329E0,-1.047587156E0,7.670414821E0
1.248556400E1,-2.061132993E0,-7.354239008E0,-2.616280510E0,8.073290798E0
1.249550700E1,-5.414838175E-1,-9.777854347E0,-1.403640197E0,9.892918991E0
1.250545000E1,-4.974766492E-1,-1.065016069E1,2.094130585E-1,1.066382950E1
1.251539300E1,-1.491355449E0,-9.740963679E0,2.471387091E-1,9.857565217E0
1.252533600E1,-1.944336468E0,-8.003430803E0,-1.120551637E-1,8.236983992E0
1.253527800E1,-1.000044908E0,-6.358350009E0,-3.164209056E-1,6.444286372E0
1.254522100E1,6.486376257E-1,-5.248011703E0,-6.065132609E-1,5.322613639E0
1.255516400E1,2.048579751E0,-4.402091507E0,-1.378400106E0,5.047283971E0
1.256510700E1,2.732485151E0,-3.646884429E0,-2.226240529E0,5.071724364E0
1.257505000E1,2.513187667E0,-2.798265742E0,-2.484662025E0,4.507765388E0
1.258499300E1,1.552386785E0,-1.463922359E0,-1.994303118E0,2.920653751E0
1.259493500E1,4.096809255E-1,3.490664953E-1,-9.482533412E-1,1.090353281E0
1.260487800E1,-7.395211910E-1,2.456267946E0,2.609110947E-1,2.578413934E0
1.261482100E1,-1.854224443E0,4.778272126E0,1.226033799E0,5.270027672E0
1.262476400E1,-2.799777832E0,7.050365642E0,2.197589610E0,7.897835887E0
1.263470700E1,-3.482532645E0,9.245916767E0,3.135445433E0,1.036561762E1
1.264464900E1,-3.797929411E0,1.109984666E1,3.309023830E0,1.218936021E1
1.265459200E1,-3.899991683E0,1.234374823E1,2.937760427E0,1.327435467E1
1.266453500E1,-3.814358625E0,1.273036379E1,2.562832282E0,1.353438596E1
1.267447800E1,-3.071528349E0,1.216708981E1,1.818103122E0,1.267982097E1
1.268442100E1,-1.852589561E0,1.083624950E1,8.895779939E-1,1.102940344E1
1.269436400E1,-6.148411578E-1,9.525401981E0,4.338867903E-2,9.545323207E0
1.270430600E1,2.987558824E-1,8.539676612E0,6.388667822E-3,8.544903307E0
1.271424900E1,6.783252552E-1,7.963145242E0,1.066301755E0,8.062803900E0
1.272419200E1,5.267568009E-1,7.851061719E0,2.346428877E0,8.211112672E0
1.273413500E1,2.125126675E-2,8.213102601E0,3.109099925E0,8.781913704E0
1.274407800E1,-4.780977340E-1,8.831256207E0,3.414249153E0,9.480335485E0
1.275402000E1,-1.012347157E0,9.388428615E0,3.598568301E0,1.010530219E1
1.276396300E1,-1.661913467E0,9.657950174E0,3.602095342E0,1.044093141E1
1.277390600E1,-2.237889498E0,9.734160444E0,3.393305596E0,1.054877016E1
1.278384900E1,-2.410364672E0,9.420624554E0,2.991564751E0,1.017386281E1
1.279379200E1,-2.037704369E0,8.412955754E0,2.349500712E0,8.969404507E0
1.280373400E1,-1.534634785E0,6.685223397E0,1.727020167E0,7.073182766E0
1.281367700E1,-1.179341443E0,4.307712184E0,1.302897057E0,4.652394140E0
1.282362000E1,-9.360167268E-1,1.324510705E0,6.705423188E-1,1.755016502E0
1.283356300E1,-5.885092454E-1,-2.284035285E0,-9.606677109E-1,2.546771047E0
1.284350600E1,2.627734329E-1,-6.639522729E0,-3.215911891E0,7.382032324E0
1.285344900E1,1.642996262E0,-1.202008847E1,-5.815962285E0,1.345389835E1
1.286339100E1,3.950160794E0,-1.926077280E1,-7.257372279E0,2.095830603E1
1.287333400E1,6.177617835E0,-2.686150060E1,-5.774425419E0,2.816109311E1
1.288327700E1,5.673679063E0,-2.739708216E1,-5.684344384E0,2.855000028E1
1.289322000E1,3.402642138E0,-1.782378447E1,-9.436159437E0,2.045253948E1
1.290316300E1,1.738683023E0,-1.081193210E1,-9.515983286E0,1.450775076E1
1.291310500E1,8.752426676E-2,-8.328506173E0,-7.941787702E0,1.150841724E1
1.292304800E1,-1.215166895E0,-7.627426770E0,-6.596960846E0,1.015746829E1
1.293299100E1,-2.143004683E0,-7.540985627E0,-5.558311159E0,9.610086172E0
1.294293400E1,-1.425594592E0,-8.337990941E0,-4.609026223E0,9.633147751E0
1.295287700E1,1.247916273E0,-9.446572158E0,-3.408527945E0,1.011993495E1
1.296281900E1,3.325706521E0,-8.830235868E0,-2.260709865E0,9.702793331E0
1.297276200E1,4.111140488E0,-6.619097820E0,-1.494048676E0,7.933858677E0
1.298270500E1,4.080828229E0,-3.848346151E0,-1.093071477E0,5.714694427E0
1.299264800E1,3.345905143E0,-1.296459273E0,-7.334057343E-1,3.662481651E0
1.300259158E1,2.284830799E0,7.858996975E-1,-3.581326032E-1,2.442611118E0
1.301253358E1,1.295616250E0,2.128524492E0,1.615319636E-1,2.497064387E0
1.302247658E1,4.382722020E-1,3.223142558E0,3.319709909E-1,3.269699559E0
1.303241958E1,-1.600961798E-1,4.487536284E0,5.170108080E-2,4.490688777E0
1.304236258E1,-6.265300342E-1,5.821838737E0,4.852931714E-1,5.875530242E0
1.305230558E1,-1.229191734E0,7.049194445E0,1.601972490E0,7.332691900E0
1.306224858E1,-1.862971000E0,8.202597494E0,2.661742612E0,8.822592608E0
1.307219058E1,-2.066397387E0,9.338865277E0,3.088753954E0,1.005110958E1
1.308213358E1,-1.943925993E0,1.053345494E1,3.076465445E0,1.114437800E1
1.309207658E1,-1.814723724E0,1.165078769E1,2.997378638E0,1.216627941E1
1.310201958E1,-1.779339737E0,1.251689832E1,3.201428045E0,1.304177653E1
1.311196258E1,-1.805371687E0,1.306964380E1,3.505134473E0,1.365140739E1
1.312190458E1,-1.819016311E0,1.325720494E1,3.657631319E0,1.387229505E1
1.313184758E1,-1.756827810E0,1.310406753E1,3.590144802E0,1.370007918E1
1.314179058E1,-1.599362000E0,1.266748049E1,3.289852856E0,1.318507310E1
1.315173358E1,-1.342695838E0,1.191497425E1,2.762301857E0,1.230446077E1
1.316167658E1,-1.007990470E0,1.089094201E1,2.107041968E0,1.113859455E1
1.317161858E1,-8.480974075E-1,9.897116497E0,1.566803534E0,1.005619498E1
1.318156158E1,-7.347073245E-1,9.060208029E0,9.498380828E-1,9.139439630E0
1.319150458E1,-6.883128843E-1,8.375596139E0,5.116091502E-1,8.419390075E0
1.320144758E1,-7.213880982E-1,7.552777122E0,6.005395992E-1,7.610879769E0
1.321139058E1,-4.877291214E-1,6.215607780E0,7.240373254E-2,6.235134487E0
1.322133258E1,5.454876253E-1,4.065079046E0,-2.980533979E0,5.070109190E0
1.323127558E1,1.480488983E0,6.993661684E-1,-6.866885862E0,7.059396724E0
1.324121858E1,6.998962185E-1,-4.443866354E0,-5.166011521E0,6.850217363E0
1.325116158E1,1.147734758E0,-1.143374606E1,8.989602900E-1,1.152631657E1
1.326110458E1,5.434089986E0,-1.843415426E1,1.716410101E0,1.929490712E1
1.327104758E1,6.810232775E0,-1.792003899E1,2.506968860E0,1.933370013E1
1.328098958E1,2.121862174E0,-7.333043436E0,5.388227935E0,9.343919167E0
1.329093258E1,-1.862055180E0,-2.954674083E-1,5.358788373E0,5.680771366E0
1.330087558E1,-5.926535472E0,-2.812124228E0,-3.913372744E0,7.638478357E0
1.331081858E1,-8.612832881E0,-1.016994992E1,-1.393080418E1,1.927890237E1
1.332076158E1,-4.935872129E0,-1.495959722E1,-9.055789872E0,1.817029754E1
1.333070358E1,-2.260024279E0,-1.289120081E1,2.482353544E0,1.332114287E1
1.334064658E1,-1.025994631E0,-1.017238821E1,3.553990591E0,1.082409331E1
1.335058958E1,1.060668620E0,-9.417426127E0,7.925079283E-1,9.510047403E0
1.336053258E1,2.843587511E0,-9.349167486E0,-1.586483508E0,9.899992552E0
1.337047558E1,3.031232847E0,-9.859836988E0,-1.847543560E0,1.047941674E1
1.338041758E1,8.974956355E-1,-1.011217709E1,-7.312788096E-1,1.017823131E1
1.339036058E1,-1.495912476E0,-9.244816906E0,-1.070798264E0,9.426080982E0
1.340030358E1,-2.079126922E0,-8.138856411E0,-1.755343494E0,8.581665527E0
1.341024658E1,-1.360834047E0,-6.926999332E0,-2.056126314E0,7.352744010E0
1.342018958E1,-3.073243922E-1,-5.438029255E0,-1.571284840E0,5.668822321E0
1.343013158E1,5.909038264E-1,-4.175275673E0,-9.312439370E-1,4.318484635E0
1.344007458E1,8.950672138E-1,-3.240163218E0,-8.053101146E-1,3.456635268E0
1.345001758E1,5.748038104E-1,-2.479749194E0,-1.036689116E0,2.748505014E0
1.345996058E1,-1.868967466E-1,-1.626238142E0,-1.331233541E0,2.109920290E0
1.346990358E1,-1.112203128E0,-4.862240481E-1,-1.445850078E0,1.887827341E0
1.347984558E1,-1.906507614E0,9.051653552E-1,-1.303145271E0,2.480379648E0
1.348978858E1,-2.411067068E0,2.502754480E0,-1.041351539E0,3.627869543E0
1.349973158E1,-2.771254822E0,4.525018691E0,-7.427701963E-1,5.357924505E0
1.350967458E1,-3.361571880E0,6.961546437E0,-3.676306741E-1,7.739408673E0
1.351961758E1,-4.326601029E0,9.449332044E0,2.415345915E-1,1.039556114E1
1.352955958E1,-5.374324425E0,1.167443617E1,7.573256703E-1,1.287436853E1
1.353950258E1,-5.913296206E0,1.337563795E1,9.944735344E-1,1.465823114E1
1.354944558E1,-5.526163167E0,1.412454466E1,1.321137300E0,1.522454087E1
1.355938858E1,-4.093081947E0,1.352418647E1,1.277160391E0,1.418760297E1
1.356933158E1,-2.006590750E0,1.146539704E1,4.503127885E-1,1.164836973E1
1.357927358E1,-3.483651218E-1,9.165222852E0,-5.255255234E-1,9.186884416E0
1.358921658E1,5.990929981E-1,7.819393199E0,-1.448433524E0,7.974947153E0
1.359915958E1,1.031234541E0,7.170793726E0,-1.758132616E0,7.454847929E0
1.360910258E1,1.207061777E0,6.975516019E0,-1.388643259E0,7.214093981E0
1.361904558E1,1.173304339E0,7.480434201E0,-6.337270796E-1,7.598364884E0
1.362898758E1,7.762740111E-1,8.429296968E0,6.180869472E-1,8.487501410E0
1.363893058E1,-2.849494368E-3,9.123016480E0,2.285798367E0,9.405015257E0
1.364887358E1,-9.148724641E-1,9.249730906E0,3.956887138E0,1.010205273E1
1.365881658E1,-1.687261585E0,8.999016332E0,5.386604163E0,1.062283630E1
1.366875958E1,-2.128158018E0,7.968896563E0,6.136362805E0,1.028043372E1
1.367870158E1,-2.217052214E0,5.623281326E0,5.554707520E0,8.209225848E0
1.368864458E1,-1.884759626E0,2.406060244E0,3.773514655E0,4.856012520E0
1.369858758E1,-6.474509333E-1,-1.225862330E0,1.405438801E0,1.974130032E0
1.370853058E1,1.367426637E0,-5.665053250E0,-1.088461533E0,5.928527004E0
1.371847358E1,3.517800127E0,-1.161395023E1,-3.688613083E0,1.268324186E1
1.372841558E1,5.652632595E0,-1.833076028E1,-4.634234447E0,1.973436487E1
1.373835858E1,7.728725104E0,-2.262541973E1,-3.098340464E0,2.410897184E1
1.374830158E1,1.045596998E1,-2.166156470E1,-4.081398625E0,2.439689546E1
1.375824458E1,9.265455823E0,-1.566108066E1,-7.004760869E0,1.949832798E1
1.376818758E1,3.855907186E0,-1.069091344E1,-6.947934119E0,1.332056451E1
1.377812958E1,-9.270210779E-1,-7.955104151E0,-5.561104374E0,9.750329840E0
1.378807258E1,-3.377379827E0,-7.185540989E0,-3.626202242E0,8.728575858E0
1.379801558E1,-2.854074199E0,-8.963415560E0,-2.590603340E0,9.757037650E0
1.380795858E1,-1.295599732E-1,-1.207982363E1,-3.174932265E0,1.249076137E1
1.381790158E1,2.701770896E0,-1.301626925E1,-3.987994325E0,1.387901041E1
1.382784358E1,4.108161039E0,-1.032189917E1,-4.205607519E0,1.187879305E1
1.383778658E1,4.894989567E0,-6.823117114E0,-3.455927814E0,9.080709613E0
1.384772958E1,4.872289506E0,-4.240994868E0,-2.580008770E0,6.955694628E0
1.385767258E1,3.725193849E0,-2.177572691E0,-1.361608072E0,4.524695413E0
1.386761558E1,2.003842997E0,-2.520939320E-1,1.432567835E-4,2.019638118E0
1.387755758E1,2.799788649E-1,1.631614072E0,1.377135353E0,2.153382090E0
1.388750058E1,-1.261928394E0,3.443756250E0,2.641036744E0,4.519623377E0
1.389744358E1,-2.533718702E0,5.061964996E0,3.516294176E0,6.663898620E0
1.390738658E1,-3.399888392E0,6.480565587E0,3.931083083E0,8.307248979E0
1.391732958E1,-3.768463245E0,7.706911481E0,3.959369866E0,9.448513615E0
1.392727158E1,-3.719544562E0,8.822228690E0,3.792652299E0,1.029810382E1
1.393721458E1,-3.391202353E0,9.961666249E0,3.530599389E0,1.109955764E1
1.394715758E1,-3.014834915E0,1.105149720E1,3.157779458E0,1.188260876E1
1.395710058E1,-2.758270787E0,1.198678507E1,2.893271302E0,1.263574663E1
1.396704358E1,-2.524892915E0,1.265012128E1,2.798494661E0,1.319970549E1
1.397698558E1,-2.313398248E0,1.295598212E1,2.695925435E0,1.343418393E1
1.398692858E1,-2.102007515E0,1.273806224E1,2.454976881E0,1.314167328E1
1.399687158E1,-1.998209351E0,1.221641459E1,2.242798674E0,1.258029299E1
1.400681471E1,-1.959054933E0,1.165697404E1,2.082063978E0,1.200241353E1
1.401675671E1,-1.745761808E0,1.097868533E1,1.970677590E0,1.128994181E1
1.402669971E1,-1.409391372E0,1.016965054E1,1.865425369E0,1.043494073E1
1.403664271E1,-1.181798882E0,9.364812296E0,1.707955320E0,9.592365157E0
1.404658571E1,-1.031751069E0,8.571197197E0,1.577752153E0,8.776060251E0
1.405652871E1,-8.749292569E-1,7.922805301E0,1.463618743E0,8.104228826E0
1.406647071E1,-4.790072684E-1,7.216929427E0,7.230770664E-1,7.268862275E0
1.407641371E1,-8.741251186E-2,5.952708778E0,-1.550960796E-1,5.955370479E0
1.408635671E1,8.396565132E-2,4.259355710E0,-1.374207799E0,4.476338724E0
1.409629971E1,1.031966758E0,1.646695211E0,-4.373558264E0,4.785872167E0
1.410624271E1,1.190040825E0,-2.432760969E0,-6.842508820E0,7.358970720E0
1.411618471E1,9.919215171E-1,-7.670359951E0,-2.208090771E0,8.043257731E0
1.412612771E1,4.897709692E0,-1.363486490E1,7.040834096E-1,1.450492449E1
1.413607071E1,7.767924253E0,-1.552753493E1,2.445073013E0,1.753349282E1
1.414601371E1,2.375991084E0,-7.945886600E0,4.777074324E0,9.570939692E0
1.415595671E1,3.553300327E-1,-2.281413978E0,2.431697946E0,3.353246795E0
1.416589871E1,1.877059282E0,-2.925101790E0,2.396317028E0,4.221600091E0
1.417584171E1,-1.827255768E0,-5.700120757E0,-1.838921256E0,6.261938332E0
1.418578471E1,-5.136415839E0,-1.019973563E1,-4.484991284E0,1.226916955E1
1.419572771E1,-3.438776761E0,-1.352302638E1,-2.708823515E0,1.421390702E1
1.420567071E1,1.236126970E-1,-1.382306339E1,-1.109013034E0,1.386803055E1
1.421561271E1,2.801522934E0,-1.200220067E1,8.622260347E-1,1.235494983E1
1.422555571E1,4.327521966E0,-1.016390857E1,-1.625675055E-1,1.104802752E1
1.423549871E1,4.579718224E0,-9.155117109E0,-1.088222089E0,1.029437786E1
1.424544171E1,2.722368591E0,-8.671964019E0,-9.749659073E-1,9.141378956E0
1.425538471E1,5.455720445E-1,-8.927421854E0,-1.525799057E0,9.073288962E0
1.426532671E1,-4.268944705E-1,-8.860260735E0,-1.727214586E0,9.037130596E0
1.427526971E1,-7.672189399E-1,-7.819013715E0,-1.421739376E0,7.984168287E0
1.428521271E1,-7.644455324E-1,-6.534092753E0,-1.004729112E0,6.654939944E0
1.429515571E1,-7.321910483E-1,-5.391680716E0,-1.049349361E0,5.541431110E0
1.430509771E1,-9.640210891E-1,-4.261346687E0,-1.149644458E0,4.517753272E0
1.431504071E1,-1.426996608E0,-3.163654740E0,-1.202522730E0,3.673022127E0
1.432498371E1,-1.961204662E0,-1.943115131E0,-1.404911674E0,3.097708338E0
1.433492671E1,-2.519149488E0,-5.164804655E-1,-1.667460136E0,3.064847389E0
1.434486971E1,-2.970006652E0,1.141893974E0,-1.750232882E0,3.631552905E0
1.435481171E1,-3.150096801E0,2.817394908E0,-1.678258481E0,4.547238223E0
1.436475471E1,-3.085253811E0,4.329615269E0,-1.532524817E0,5.532900845E0
1.437469771E1,-2.927871324E0,5.758319263E0,-1.319456956E0,6.593302502E0
1.438464071E1,-2.774394484E0,7.257883911E0,-9.135314052E-1,7.823597845E0
1.439458371E1,-2.783521988E0,8.722726622E0,-9.149489164E-2,9.156545511E0
1.440452571E1,-2.966994166E0,9.932276974E0,7.718139012E-1,1.039465617E1
1.441446871E1,-2.880075306E0,1.076178871E1,1.404639340E0,1.122871060E1
1.442441171E1,-2.191952748E0,1.112914355E1,1.753760361E0,1.147772488E1
1.443435471E1,-1.291445139E0,1.100959254E1,1.545987592E0,1.119236508E1
1.444429771E1,-4.934272331E-1,1.024115965E1,8.101906393E-1,1.028500026E1
1.445423971E1,-5.865590528E-2,9.145693152E0,7.552980021E-2,9.146193115E0
1.446418271E1,7.056171343E-2,8.228451542E0,-5.080129664E-1,8.244420593E0
1.447412571E1,-5.046775684E-2,7.691232757E0,-7.665487759E-1,7.729502270E0
1.448406871E1,-4.457879207E-1,7.599852471E0,-6.259280634E-1,7.638603955E0
1.449401071E1,-1.015986464E0,7.888217851E0,-6.719386339E-2,7.953661067E0
1.450395371E1,-1.701618692E0,8.265632817E0,9.992650352E-1,8.497924609E0
1.451389671E1,-2.408384074E0,8.389441761E0,2.202535332E0,9.001900288E0
1.452383971E1,-2.787918509E0,7.918896437E0,2.929586312E0,8.891787579E0
1.453378271E1,-2.608828526E0,6.539192694E0,2.893603424E0,7.611830801E0
1.454372471E1,-2.270877588E0,4.326578225E0,1.982878536E0,5.273326412E0
1.455366771E1,-1.891609201E0,1.335147960E0,6.983706799E-1,2.418372810E0
1.456361071E1,-1.475747476E0,-2.668780906E0,-7.960715139E-1,3.151817252E0
1.457355371E1,-1.033185172E0,-7.638154657E0,-2.323432070E0,8.050292836E0
1.458349671E1,8.340292990E-2,-1.366153756E1,-3.544908403E0,1.411421058E1
1.459343871E1,1.685083205E0,-1.895702866E1,-3.050489775E0,1.927469659E1
1.460338171E1,3.632252941E0,-1.966834478E1,-2.443122528E0,2.014958797E1
1.461332471E1,5.031745416E0,-1.534720213E1,-4.756588604E0,1.683687056E1
1.462326771E1,4.843667093E0,-1.067688246E1,-6.510268857E0,1.341046348E1
1.463320971E1,4.147342354E0,-1.007584717E1,-5.607988518E0,1.225449632E1
1.464315271E1,2.697122360E0,-1.009662233E1,-5.139251153E0,1.164595010E1
1.465309571E1,1.690936853E0,-9.477530242E0,-4.480781288E0,1.061886283E1
1.466303871E1,1.300315365E0,-8.923712965E0,-3.790820366E0,9.782320389E0
1.467298171E1,1.856469920E0,-8.345487072E0,-3.079935476E0,9.087333908E0
1.468292371E1,3.325971107E0,-7.299585668E0,-2.147650442E0,8.304121697E0
1.469286671E1,3.659136100E0,-5.624158993E0,-1.066477171E0,6.793954293E0
1.470280971E1,2.992309979E0,-3.685175505E0,1.542717683E-1,4.749551273E0
1.471275271E1,2.000948771E0,-1.728553306E0,1.322118609E0,2.956296693E0
1.472269571E1,9.328989914E-1,5.762957275E-2,2.055112115E0,2.257677457E0
1.473263771E1,2.181223400E-1,1.604812190E0,2.326879881E0,2.835025485E0
1.474258071E1,-6.760389939E-2,3.181945415E0,2.463087846E0,4.024443893E0
1.475252371E1,-2.928194967E-1,4.852776763E0,2.505796786E0,5.469387818E0
1.476246671E1,-5.087115625E-1,6.328984707E0,2.562091439E0,6.846834847E0
1.477240871E1,-8.578537792E-1,7.633371050E0,2.563919279E0,8.098021287E0
1.478235171E1,-1.322487714E0,8.765079759E0,2.484766398E0,9.205957907E0
1.479229471E1,-1.745366537E0,9.683756275E0,2.366019973E0,1.012025150E1
1.480223771E1,-2.059415373E0,1.045764345E1,2.286291726E0,1.090094620E1
1.481218071E1,-2.106482389E0,1.116680897E1,2.293090576E0,1.159280618E1
1.482212271E1,-1.848224615E0,1.180307959E1,2.313891461E0,1.216892418E1
1.483206571E1,-1.337885187E0,1.223554434E1,2.384306555E0,1.253728040E1
1.484200871E1,-6.257931389E-1,1.236988061E1,2.294093373E0,1.259636565E1
1.485195171E1,5.655923992E-2,1.225769476E1,1.987141156E0,1.241785045E1
1.486189471E1,5.961063865E-1,1.176404942E1,1.696899405E0,1.190074238E1
1.487183671E1,8.241529132E-1,1.097151898E1,1.667946185E0,1.112814007E1
1.488177971E1,6.023315515E-1,1.011018085E1,1.484446817E0,1.023631489E1
1.489172271E1,1.956012773E-1,8.957880000E0,1.549617544E0,9.093029665E0
1.490166571E1,-6.787711054E-2,7.447706750E0,1.104988103E0,7.529537957E0
1.491160771E1,6.446069938E-1,5.725887682E0,-8.846427977E-1,5.829571236E0
1.492155071E1,1.998447625E0,3.258265028E0,-4.989627922E0,6.285417305E0
1.493149371E1,9.942350411E-1,2.406836754E-1,-5.336311677E0,5.433475339E0
1.494143671E1,-4.548397759E-1,-3.128069170E0,1.276904575E0,3.409132038E0
1.495137871E1,2.368146898E0,-6.755946640E0,1.534861364E0,7.321661979E0
1.496132171E1,5.278328932E0,-8.797275698E0,-1.746624711E-1,1.026076620E1
1.497126471E1,3.142133478E0,-8.185381536E0,2.165322189E0,9.031173449E0
1.498120771E1,1.064464560E0,-6.259135623E0,2.422088631E0,6.795320219E0
1.499115071E1,6.660381355E-1,-3.904801018E0,1.355842133E0,4.186810920E0
1.500109188E1,-6.368132401E-1,-2.870869449E0,1.635898912E0,3.365053900E0
1.501103488E1,-3.514520716E0,-4.380314721E0,-1.228585086E0,5.748776760E0
1.502097788E1,-5.417167559E0,-7.878172334E0,-3.218841638E0,1.008822309E1
1.503092087E1,-5.760168738E0,-1.192510630E1,-5.205125885E0,1.422958326E1
1.504086388E1,-4.926020156E0,-1.441030159E1,-4.842059109E0,1.598023789E1
1.505080588E1,-2.816969231E0,-1.411671757E1,-7.924202201E-1,1.441682907E1
1.506074888E1,-1.545937453E0,-1.110772987E1,-2.028957519E-1,1.121662838E1
1.507069188E1,-4.856150606E-1,-9.256272186E0,-5.318884635E-1,9.284250218E0
1.508063488E1,-1.392125568E-1,-8.602371043E0,-1.659205914E-1,8.605097172E0
1.509057688E1,-4.847949886E-1,-8.382936734E0,-2.461210012E-1,8.400549388E0
1.510051988E1,-9.785344630E-1,-8.205436901E0,-4.513430679E-1,8.275894816E0
1.511046288E1,-1.103602020E0,-7.699408919E0,-3.897590232E-1,7.787858962E0
1.512040588E1,-6.450902662E-1,-7.152856223E0,-3.041218722E-1,7.188322733E0
1.513034888E1,1.274006695E-1,-6.590693216E0,-4.799093476E-1,6.609370694E0
1.514029088E1,9.628523038E-1,-5.763118073E0,-5.545817998E-1,5.869256806E0
1.515023387E1,1.629973928E0,-4.438826639E0,-4.486029164E-1,4.749867526E0
1.516017688E1,2.184113971E0,-2.684086577E0,-5.651778316E-1,3.506294422E0
1.517011988E1,2.469328287E0,-8.392216265E-1,-7.153226352E-1,2.704359739E0
1.518006187E1,2.235142914E0,9.118650949E-1,-7.116527764E-1,2.516706473E0
1.519000488E1,1.461945416E0,2.448404025E0,-7.115906498E-1,2.939103252E0
1.519994788E1,3.211766654E-1,3.681866566E0,-8.802701037E-1,3.799232990E0
1.520989088E1,-8.288803140E-1,4.731465749E0,-9.432563107E-1,4.895257213E0
1.521983388E1,-1.945696384E0,5.921771745E0,-6.367196846E-1,6.265662533E0
1.522977588E1,-3.011689990E0,7.295154063E0,-1.614299297E-1,7.894023627E0
1.523971888E1,-3.702715690E0,8.617241682E0,4.228156722E-1,9.388595783E0
1.524966188E1,-3.716110200E0,9.597981130E0,9.093355894E-1,1.033235733E1
1.525960487E1,-3.053697265E0,1.007899765E1,9.875937004E-1,1.057764633E1
1.526954688E1,-2.133382066E0,1.004164563E1,9.214476581E-1,1.030703798E1
1.527948988E1,-1.688965318E0,9.529406154E0,8.593863344E-1,9.716003827E0
1.528943287E1,-1.548016430E0,8.527003942E0,5.915780103E-1,8.686547970E0
1.529937588E1,-1.125496627E0,7.565149246E0,2.700127244E-1,7.653177944E0
1.530931888E1,-5.169973594E-1,7.242457201E0,7.309019566E-3,7.260890166E0
1.531926088E1,1.247649640E-3,7.425782030E0,-3.356374875E-2,7.425857987E0
1.532920388E1,2.831267866E-1,7.880291950E0,3.038730732E-1,7.891229362E0
1.533914688E1,3.252045199E-1,8.452112803E0,9.082740274E-1,8.506993037E0
1.534908988E1,1.690016355E-1,8.941927627E0,1.680325472E0,9.100006864E0
1.535903188E1,-1.618849162E-1,9.349214264E0,2.481842790E0,9.674376347E0
1.536897488E1,-6.331425042E-1,9.623792494E0,3.238356721E0,1.017375082E1
1.537891788E1,-1.108880083E0,9.378708789E0,3.640893079E0,1.012155601E1
1.538886088E1,-1.367337174E0,8.054088741E0,3.472397082E0,8.876682820E0
1.539880388E1,-1.377281534E0,5.697670189E0,2.839961067E0,6.513503578E0
1.540874588E1,-1.244836544E0,2.713813822E0,1.743919204E0,3.457695428E0
1.541868888E1,-7.246145917E-1,-9.147694069E-1,3.992040306E-1,1.233382841E0
1.542863188E1,5.471327394E-2,-5.220083063E0,-8.664100099E-1,5.291779193E0
1.543857488E1,7.519203579E-1,-1.007640733E1,-2.069977491E0,1.031427049E1
1.544851688E1,1.635219173E0,-1.491509406E1,-2.717372729E0,1.524854377E1
1.545845988E1,2.891991931E0,-1.818181182E1,-1.461564762E0,1.846829906E1
1.546840288E1,4.243961161E0,-1.800857169E1,-3.858846581E-1,1.850591169E1
1.547834588E1,3.435485948E0,-1.424393895E1,-2.414067421E0,1.484991859E1
1.548828788E1,1.999724218E0,-1.049631694E1,-3.599897373E0,1.127523070E1
1.549823088E1,1.359528949E0,-9.165284833E0,-3.885503452E0,1.004728332E1
1.550817388E1,9.445579009E-1,-9.151884184E0,-4.462680940E0,1.022568799E1
1.551811687E1,5.666532303E-1,-9.480492441E0,-4.585885575E0,1.054661933E1
1.552805988E1,4.178218576E-1,-9.588378248E0,-4.554869896E0,1.062348400E1
1.553800188E1,4.827861777E-1,-9.147444978E0,-4.180560679E0,1.006905754E1
1.554794487E1,1.199814446E0,-8.270561435E0,-3.299139697E0,8.984768439E0
1.555788788E1,2.109415791E0,-7.063462236E0,-2.149166625E0,7.678609960E0
1.556783088E1,2.708510105E0,-5.519128382E0,-1.030594855E0,6.233693194E0
1.557777288E1,3.186718205E0,-3.763798336E0,-1.182961893E-1,4.933086744E0
1.558771588E1,3.317029545E0,-1.934730223E0,3.808168763E-1,3.858871277E0
1.559765888E1,2.808702145E0,-3.296853143E-1,5.950439474E-1,2.889909591E0
1.560760188E1,2.070844633E0,9.182145864E-1,8.141075429E-1,2.407132446E0
1.561754488E1,1.528310436E0,2.074152988E0,1.001794979E0,2.764314849E0
1.562748688E1,1.238393205E0,3.279296293E0,1.209855284E0,3.708254538E0
1.563742988E1,9.785024495E-1,4.602382616E0,1.573276840E0,4.961309586E0
1.564737288E1,5.565533347E-1,5.918302592E0,1.922541556E0,6.247577388E0
1.565731588E1,1.830788071E-1,7.139140409E0,2.125065718E0,7.450956176E0
1.566725788E1,-1.090854359E-1,8.290389344E0,2.300370798E0,8.604310600E0
1.567720088E1,-3.857254677E-1,9.418374546E0,2.467824675E0,9.743958223E0
1.568714388E1,-5.866561896E-1,1.047701762E1,2.790582793E0,1.085814975E1
1.569708688E1,-5.544569618E-1,1.130765202E1,3.254080760E0,1.177962047E1
1.570702988E1,-3.356462583E-1,1.201258766E1,3.063079122E0,1.240150695E1
1.571697188E1,2.040254340E-2,1.266316993E1,2.321367126E0,1.287420033E1
1.572691488E1,4.696631985E-1,1.298603680E1,1.355636165E0,1.306504821E1
1.573685788E1,7.163382234E-1,1.270183873E1,6.653080375E-1,1.273940668E1
1.574680088E1,5.123623446E-1,1.176779281E1,4.944059108E-1,1.178931296E1
1.575674288E1,-1.337881679E-1,1.037996436E1,9.738059659E-1,1.042640194E1
1.576668588E1,-9.737355070E-1,9.060940100E0,1.681416124E0,9.266928106E0
1.577662887E1,-1.460834445E0,7.652789068E0,2.086040962E0,8.065406666E0
1.578657188E1,-1.378324092E0,6.059277792E0,1.707906203E0,6.444499070E0
1.579651388E1,-5.515587893E-1,4.336208589E0,-1.096621907E-1,4.372521906E0
1.580645687E1,1.229942078E-1,2.253038610E0,-2.831702460E0,3.620752598E0
1.581639988E1,-9.159941062E-1,-5.560017961E-1,-3.980640575E0,4.122339455E0
1.582634288E1,-2.872319851E0,-4.000900592E0,3.087250927E-1,4.934849345E0
1.583628588E1,-1.931338546E0,-7.447279319E0,1.562875375E0,7.850771762E0
1.584622788E1,1.320789683E0,-1.038710966E1,-1.413882180E0,1.056577471E1
1.585617088E1,2.519029035E0,-1.270457289E1,-2.610176017E0,1.321229346E1
1.586611388E1,1.873385622E0,-1.615743326E1,-5.366059971E0,1.712795442E1
1.587605688E1,-2.298440778E0,-1.689830238E1,-4.390180728E0,1.760991596E1
1.588599888E1,-7.167398833E0,-1.257884606E1,-3.282241243E0,1.484493455E1
1.589594188E1,-3.274502161E0,-6.974380490E0,-5.322343848E0,9.364384211E0
1.590588488E1,-1.863741809E0,-6.149838299E-1,2.311794649E0,3.032512678E0
1.591582787E1,-5.400350382E0,1.028276727E0,5.311505449E0,7.644162963E0
1.592576988E1,-4.892085840E0,-4.399692394E0,-2.092877526E0,6.904341631E0
1.593571288E1,-8.371098315E-1,-1.125508672E1,-1.991442660E0,1.146052241E1
1.594565588E1,1.046009870E0,-1.539134510E1,4.034087634E-1,1.543212167E1
1.595559888E1,-4.931511714E-1,-1.429983132E1,6.123715863E-1,1.432143054E1
1.596554188E1,-1.815020762E0,-9.244328663E0,-6.292469430E-1,9.441814684E0
1.597548388E1,-1.650232192E0,-5.798188503E0,-2.109523672E0,6.386888627E0
1.598542688E1,-9.189606911E-1,-4.147059349E0,-2.008909171E0,4.698755798E0
1.599536988E1,2.584953906E-1,-3.442758715E0,-1.939679161E0,3.960020541E0
1.600531396E1,1.501398042E0,-3.422121552E0,-2.417887992E0,4.450988018E0
1.601525596E1,2.314161894E0,-3.535915385E0,-2.579686296E0,4.951042746E0
1.602519896E1,2.679248006E0,-3.022814611E0,-2.653013889E0,4.832624623E0
1.603514196E1,2.579360606E0,-1.713318971E0,-2.291488585E0,3.852204949E0
1.604508496E1,1.777606037E0,-2.950738907E-2,-1.204773031E0,2.147610757E0
1.605502796E1,4.320738611E-1,1.736396762E0,6.445195779E-2,1.790507076E0
1.606496996E1,-9.663786133E-1,3.474162356E0,1.339141316E0,3.846685738E0
1.607491296E1,-1.851915231E0,5.255369840E0,2.257916358E0,6.012211611E0
1.608485596E1,-2.196202505E0,7.013795401E0,2.774689769E0,7.855923541E0
1.609479896E1,-2.165694218E0,8.503513922E0,2.977778479E0,9.266452673E0
1.610474096E1,-1.744710625E0,9.569753112E0,2.638830882E0,1.007906832E1
1.611468396E1,-9.893504964E-1,1.012020648E1,1.707581390E0,1.031083061E1
1.612462696E1,-2.593658218E-1,1.018110874E1,5.386455059E-1,1.019864623E1
1.613456996E1,8.379578970E-2,9.695523797E0,-1.623840491E-1,9.697245589E0
1.614451196E1,1.271389335E-2,8.747415320E0,-1.451676536E-1,8.748629040E0
1.615445496E1,-8.530656405E-2,7.695052743E0,5.160989347E-1,7.712812200E0
1.616439796E1,-1.976139620E-1,6.896475112E0,1.178065435E0,6.999161266E0
1.617434096E1,-3.558529931E-1,6.542301659E0,1.181389869E0,6.657629035E0
1.618428396E1,-6.276230981E-1,6.649398676E0,9.206297788E-1,6.742104471E0
1.619422596E1,-9.143030184E-1,7.095217879E0,1.065333163E0,7.232772740E0
1.620416896E1,-9.415468772E-1,7.687448439E0,1.853743363E0,7.963651077E0
1.621411196E1,-7.249147732E-1,8.499595703E0,3.014860936E0,9.047541931E0
1.622405496E1,-3.478306863E-1,9.151428686E0,4.318241265E0,1.012506004E1
1.623399696E1,-6.181275854E-1,9.184529774E0,5.289061496E0,1.061658327E1
1.624393996E1,-1.879004212E0,7.983242122E0,5.514386290E0,9.882877504E0
1.625388296E1,-3.121830483E0,5.581878946E0,5.032297393E0,8.138010518E0
1.626382596E1,-3.406551586E0,2.702863156E0,3.647395476E0,5.675698786E0
1.627376796E1,-2.784248797E0,-3.871599358E-1,1.383155062E0,3.132898355E0
1.628371096E1,-1.409334216E0,-3.877597432E0,-1.028232872E0,4.251969851E0
1.629365396E1,7.890761244E-1,-8.177649179E0,-3.416726619E0,8.897786691E0
1.630359696E1,3.222154086E0,-1.277350455E1,-5.208428977E0,1.416588959E1
1.631353996E1,5.821210161E0,-1.679974054E1,-5.044302896E0,1.848141666E1
1.632348196E1,8.069123687E0,-1.812693453E1,-4.275645468E0,2.029723274E1
1.633342496E1,7.861369776E0,-1.493968043E1,-6.206855668E0,1.798666849E1
1.634336796E1,5.531764215E0,-1.014808016E1,-7.697986876E0,1.388679042E1
1.635331096E1,3.070743360E0,-7.497843116E0,-6.533938971E0,1.040862501E1
1.636325296E1,9.157819985E-1,-6.198525724E0,-4.339392983E0,7.621726135E0
1.637319596E1,-4.229082043E-1,-5.725939137E0,-2.589030147E0,6.298278134E0
1.638313896E1,-5.859910689E-1,-6.091660257E0,-2.659642877E0,6.672736354E0
1.639308196E1,5.713023515E-1,-6.949634489E0,-3.682334343E0,7.885644686E0
1.640302396E1,2.164167364E0,-7.185849137E0,-4.059770944E0,8.532396400E0
1.641296696E1,3.001552380E0,-6.313646291E0,-3.889162640E0,7.999814512E0
1.642290996E1,3.117612010E0,-4.814530125E0,-3.410385606E0,6.673075374E0
1.643285296E1,2.613513316E0,-2.739586594E0,-2.655309213E0,4.624549013E0
1.644279596E1,1.682763761E0,-3.359769183E-1,-1.467409054E0,2.257844923E0
1.645273796E1,6.799682497E-1,1.571843249E0,1.453340068E-1,1.718769907E0
1.646268096E1,-4.164463001E-1,2.910550994E0,1.989425079E0,3.550006585E0
1.647262396E1,-1.425621050E0,4.000674890E0,3.043769862E0,5.225163148E0
1.648256696E1,-2.161138068E0,4.723054529E0,3.492251010E0,6.258880008E0
1.649250896E1,-2.684859579E0,5.044816867E0,3.933300932E0,6.937543110E0
1.650245196E1,-2.912018060E0,5.244714459E0,4.048072127E0,7.236972218E0
1.651239496E1,-2.698138021E0,5.557134699E0,4.052090626E0,7.387904526E0
1.652233796E1,-2.026442924E0,6.286514041E0,3.733477015E0,7.587198451E0
