"Time (s)","Linear Acceleration x (m/s^2)","Linear Acceleration y (m/s^2)","Linear Acceleration z (m/s^2)","Absolute acceleration (m/s^2)"
3.203458356E-3,-1.494334897E-1,4.792027116E-1,-8.499091673E-1,9.870720335E-1
1.314645834E-2,-4.012125492E-2,5.602421969E-1,-9.575213242E-1,1.110102752E0
2.309045836E-2,8.737669766E-2,5.919607106E-1,-1.062111640E0,1.219070673E0
3.303445835E-2,9.848436087E-2,6.388711676E-1,-1.014396021E0,1.202852787E0
4.297745836E-2,1.208692566E-1,6.689840358E-1,-8.635115451E-1,1.099000094E0
5.292145835E-2,1.547106019E-1,6.704288828E-1,-6.731396520E-1,9.625628543E-1
6.286445833E-2,5.385433258E-1,4.321837887E-1,-5.328228486E-1,8.721880124E-1
7.280845835E-2,8.013426326E-1,1.824287429E-1,-7.277093768E-2,8.250611314E-1
8.275145834E-2,3.241064858E-1,5.126612104E-1,5.365112722E-1,8.097597644E-1
9.269545836E-2,6.192727625E-2,6.199900697E-1,5.778522563E-1,8.497857990E-1
1.026394583E-1,-2.918905203E-1,6.421304056E-1,4.995679790E-1,8.643492924E-1
1.125824584E-1,-5.896440437E-1,6.904969655E-1,4.055500138E-1,9.944531016E-1
1.225264583E-1,-5.877781972E-1,7.283022845E-1,7.462625921E-2,9.388698021E-1
1.324694584E-1,-4.965144168E-1,6.926836780E-1,3.174219489E-2,8.528451271E-1
1.424134584E-1,-3.999486005E-1,5.073821249E-1,9.811347198E-1,1.174742883E0
1.523564584E-1,-3.442444062E-1,2.272365412E-1,4.091908996E0,4.112646336E0
1.623004584E-1,-4.469491777E-1,7.763145031E-1,3.797605768E0,3.901824873E0
1.722434583E-1,7.701682024E-2,1.380346498E0,2.560333766E0,2.909741748E0
1.821874584E-1,9.326796477E-1,7.383023389E-1,1.648209640E0,2.032628024E0
1.921317917E-1,2.282642186E0,-3.449798032E-1,2.003197610E-1,2.317238533E0
2.020747917E-1,2.509686061E0,-7.402037072E-1,-1.862630546E-1,2.623188819E0
2.120187917E-1,1.336636222E0,4.895287848E-1,-6.929201978E-1,1.583152937E0
2.219617917E-1,1.217813418E0,5.151656460E-1,-1.427090163E0,1.945520881E0
2.319057917E-1,1.404797800E0,-5.566533221E-1,-1.536288670E0,2.154878803E0
2.418487917E-1,5.454134022E-1,-9.535006325E-1,-1.650305282E0,1.982459775E0
2.517927917E-1,-7.148828515E-1,-1.282727379E0,-1.970927412E0,2.457844967E0
2.617367917E-1,-1.537361634E0,-1.573702079E0,-1.780604051E0,2.830295004E0
2.716797917E-1,-1.843580756E0,-1.827882005E0,-1.211251892E0,2.864799081E0
2.816237917E-1,-1.851771536E0,-2.771835743E0,-4.507419741E-1,3.363822161E0
2.915667917E-1,-1.668412501E0,-2.575711359E0,-7.467204291E-1,3.158398435E0
3.015107917E-1,-1.440520779E-1,-2.116881077E0,-5.619209325E-1,2.194924061E0
3.114537917E-1,9.237466371E-1,-2.585481764E0,1.743850207E-1,2.751078686E0
3.213977917E-1,1.242882113E0,-3.125744317E0,7.932660198E-1,3.456053307E0
3.313417917E-1,2.099533704E0,-3.246992181E0,-7.717757481E-1,3.942922495E0
3.412847917E-1,-2.317634263E0,-2.191538765E0,-4.445860839E0,5.471740979E0
3.512287917E-1,-1.480967110E1,1.622520483E0,-1.041380688E1,1.817708185E1
3.611717917E-1,-2.440567002E0,-7.184586723E0,-6.152446741E0,9.768687455E0
3.711157917E-1,4.179154131E-1,-3.781172753E0,-2.182812381E-1,3.810455009E0
3.810587917E-1,9.334612012E-2,-2.513005233E0,2.511782581E0,3.554287627E0
3.910027917E-1,7.704092538E-1,-2.724346996E0,-2.033211368E-1,2.838474319E0
4.009457917E-1,2.995037413E-1,-2.630279329E0,-8.027426022E-1,2.766309369E0
4.108897917E-1,-2.182069784E-1,-2.037028138E0,-7.426998836E-1,2.179151449E0
4.208337917E-1,-4.234924874E-1,-1.248631387E0,-4.145126259E-1,1.382116835E0
4.307767917E-1,-1.917909831E0,-6.967771675E-1,-6.840178120E-1,2.152151692E0
4.407207917E-1,-1.658790177E0,-3.385505703E-1,-8.385708314E-1,1.889286209E0
4.506637917E-1,5.585903585E-2,6.068973133E-2,-8.867179745E-1,8.905460357E-1
4.606077917E-1,2.208860557E0,4.246344486E-1,-2.857937747E-1,2.267390010E0
4.705507917E-1,3.739610159E0,8.587071803E-1,-1.618287098E-1,3.840345127E0
4.804947917E-1,4.468782510E0,5.573750147E-1,7.164569950E-1,4.560043273E0
4.904377917E-1,5.030832666E0,3.928801938E-1,1.975364864E0,5.419012687E0
5.003817917E-1,4.607191951E0,7.713977256E-1,2.614949099E0,5.353431696E0
5.103257917E-1,3.558151762E0,1.334724183E0,3.086449274E0,4.895722799E0
5.202687917E-1,3.078852864E0,3.511796790E0,2.836229374E0,5.464087181E0
5.302127917E-1,3.026956778E0,5.607790883E0,2.903954750E0,7.003052128E0
5.401557917E-1,2.207882318E0,5.828759501E0,2.707522802E0,6.795576604E0
5.500997917E-1,1.383237215E0,4.644359193E0,1.622902890E0,5.110502059E0
5.600427917E-1,1.118406293E0,3.208135679E0,9.563284922E-1,3.529522823E0
5.699867917E-1,8.660334492E-1,2.048575512E0,1.655965387E0,2.772886028E0
5.799307917E-1,5.552451664E-1,1.409150467E0,2.482846465E0,2.908354999E0
5.898737917E-1,-5.123359591E-2,8.498550805E-1,3.115253243E0,3.229501712E0
5.998177917E-1,-4.374331266E-1,4.515206771E-1,2.370999169E0,2.452927990E0
6.097607917E-1,-9.342020434E-1,1.719238838E0,2.320361112E0,3.035225088E0
6.197047917E-1,-1.409265803E0,1.972382053E0,2.265834657E0,3.318181394E0
6.296477917E-1,-1.096485959E0,1.132163476E0,2.000724823E0,2.546954144E0
6.395917917E-1,-7.853845578E-1,5.066144586E-1,1.847789728E0,2.070703743E0
6.495347917E-1,-9.598362368E-1,4.501996449E-1,1.212798480E0,1.610852407E0
6.594787917E-1,-1.176613863E0,7.594115183E-1,4.233694035E-1,1.462999552E0
6.694217917E-1,-1.159779437E0,7.642705545E-1,5.163559198E-2,1.389915126E0
6.793657917E-1,-8.788119543E-1,3.561939588E-1,1.906005192E-1,9.672192849E-1
6.893097917E-1,-7.648044053E-1,-6.486667156E-2,6.771514267E-1,1.023556309E0
6.992527917E-1,-7.817171842E-1,-1.809324405E-1,1.060841625E0,1.330114001E0
7.091967917E-1,-7.948541236E-1,-1.777525784E-1,1.395915148E0,1.616158457E0
7.191397917E-1,-5.628594106E-1,-2.057980174E-1,1.256440929E0,1.392051489E0
7.290837917E-1,-4.963274521E-1,-2.171936560E-1,1.086255963E0,1.213864095E0
7.390267917E-1,-8.613363808E-1,-4.180582313E-1,8.697481853E-1,1.293497179E0
7.489707917E-1,-8.751700160E-1,-4.818066229E-1,5.933672583E-1,1.161957349E0
7.589147917E-1,-7.527573869E-1,-2.529436786E-1,3.208460784E-1,8.564849059E-1
7.688577917E-1,-4.609336710E-1,-3.267095201E-1,5.102397323E-2,5.672763043E-1
7.788017917E-1,-2.673709524E-1,-2.404964183E-1,1.721157163E-1,3.986848043E-1
7.887447917E-1,-2.611036143E-1,1.618496136E-1,3.599376386E-1,4.732076696E-1
7.986887917E-1,3.790106714E-2,8.163677841E-2,4.328991956E-1,4.421569495E-1
8.086317917E-1,1.009781983E-1,2.237365441E-1,4.770754945E-1,5.365218217E-1
8.185757917E-1,6.892288506E-2,4.265331857E-1,5.650936317E-1,7.113450184E-1
8.285187917E-1,-5.825265205E-1,1.122638362E0,5.398120254E-1,1.375154923E0
8.384627917E-1,-4.661955804E-1,1.105737862E0,3.126716709E-1,1.240063753E0
8.484067917E-1,-4.966168892E-1,8.665713930E-1,1.514598423E-1,1.010205127E0
8.583497917E-1,-4.304784483E-1,6.131074584E-1,-5.562456250E-2,7.512033958E-1
8.682937917E-1,-2.105658370E-1,5.580582619E-2,-6.659510851E-2,2.277875555E-1
8.782367917E-1,3.018332720E-2,-4.607740420E-1,-2.156102300E-2,4.622646739E-1
8.881807917E-1,3.481736255E-1,-8.534876633E-1,7.636814475E-2,9.249314344E-1
8.981237917E-1,5.642960715E-1,-1.049650054E0,9.860627532E-2,1.195791993E0
9.080677917E-1,4.326565361E-1,-1.137373492E0,2.169147438E-1,1.236067208E0
9.180107917E-1,5.446663839E-1,-8.749237020E-1,3.424831152E-2,1.031176949E0
9.279547917E-1,3.360950321E-1,-4.472681433E-1,-2.189320332E-1,6.007827376E-1
9.378987917E-1,-8.028162771E-1,3.751452233E-1,-9.801219821E-2,8.915460192E-1
9.478417917E-1,-1.096986188E0,7.156375077E-1,-2.320701420E-2,1.309982559E0
9.577857917E-1,-8.732284480E-1,5.617168647E-1,2.329396230E-1,1.064102733E0
9.677287917E-1,-8.812122363E-1,4.790720263E-1,5.884322083E-1,1.162883260E0
9.776727917E-1,-9.599432409E-1,2.517404678E-1,1.008014370E0,1.414551964E0
9.876157917E-1,-7.577605569E-1,-5.838007750E-1,1.280675299E0,1.598484791E0
9.975597917E-1,-7.111132246E-1,-1.187625632E0,1.187008166E0,1.823492541E0
1.007502792E0,-1.067869978E0,-1.158148649E0,1.030351903E0,1.882360122E0
1.017446792E0,-1.663483737E0,-9.523653956E-1,1.128743001E0,2.224463700E0
1.027390792E0,-2.039808782E0,-1.036218269E0,1.399020604E0,2.681758158E0
1.037333792E0,-2.179704586E0,-1.220594281E0,1.760311289E0,3.056085456E0
1.047277792E0,-2.138978729E0,-1.077454149E0,2.383992852E0,3.379283854E0
1.057220792E0,-2.356902702E0,-8.024886138E-1,3.016983182E0,3.911670467E0
1.067164792E0,-2.461331050E0,-1.211877252E0,3.770141396E0,4.662699128E0
1.077107792E0,-2.473058226E0,-1.749282417E0,4.406430725E0,5.347208402E0
1.087051792E0,-2.330320675E0,-2.161515652E0,4.917137066E0,5.854979187E0
1.096994792E0,-2.271853196E0,-2.691154984E0,5.332474734E0,6.390533536E0
1.106938792E0,-2.575888529E0,-3.184547718E0,5.202112815E0,6.621066653E0
1.116882792E0,-2.646129962E0,-3.216198404E0,4.185926961E0,5.904906474E0
1.126825792E0,-2.647998147E0,-2.928700166E0,2.845597783E0,4.866888698E0
1.136769792E0,-2.826209586E0,-3.062571584E0,1.487698308E0,4.424935207E0
1.146712792E0,-3.285594914E0,-2.770527720E0,-2.990470737E-1,4.308176754E0
1.156656792E0,-4.915836060E0,-6.003336310E-2,-1.963785623E0,5.293911800E0
1.166599792E0,-4.619050105E0,1.480474950E0,-2.462454885E0,5.439771503E0
1.176543792E0,-6.814532232E-1,9.680930901E-1,-3.158987492E0,3.373541863E0
1.186486792E0,3.011000311E0,6.688505732E-1,-3.891481353E0,4.965592723E0
1.196430667E0,4.780397589E0,2.830388591E-1,-3.970942383E0,6.220988306E0
1.206374667E0,4.574144658E0,1.108033040E0,-4.387345998E0,6.434232004E0
1.216317667E0,2.901066810E0,2.450336530E0,-6.992781093E0,7.957344102E0
1.226261667E0,-2.371328368E0,3.222355815E0,-7.924875215E0,8.877523439E0
1.236204667E0,-4.130182530E0,3.090992268E0,-7.826905117E0,9.374064468E0
1.246148667E0,-4.079722229E0,2.322994698E0,-7.280163556E0,8.662633505E0
1.256091667E0,-3.533959492E0,1.579425626E0,-5.725529248E0,6.911232897E0
1.266035667E0,-2.130136569E0,1.020254931E0,-4.128600858E0,4.756442681E0
1.275979667E0,-8.793756258E-1,1.122480633E0,-2.682946955E0,3.038333199E0
1.285922667E0,-3.564070898E-1,2.078747145E0,-1.236982564E0,2.445064738E0
1.295866667E0,-1.084329890E0,3.676188920E0,7.081573109E-1,3.897643270E0
1.305809667E0,-1.649192557E0,3.655692675E0,5.555496894E0,6.851822441E0
1.315753667E0,1.019613492E0,1.366601302E0,1.307935603E0,2.148931440E0
1.325696667E0,8.435664001E0,-1.078161077E1,2.406303488E0,1.389941922E1
1.335640667E0,-9.460748148E-1,-2.676877545E0,3.256935956E0,4.320690080E0
1.345583667E0,-6.929596081E0,7.311970071E0,1.034018342E1,1.443619068E1
1.355527667E0,1.486206683E0,7.993916799E0,7.862495949E0,1.131063034E1
1.365471667E0,5.738970827E0,2.295117513E0,-7.437565924E0,9.670612050E0
1.375414667E0,1.511571320E0,-1.320104828E0,-1.001669907E1,1.021576159E1
1.385358667E0,-1.902625501E-2,-5.168921680E0,-9.627705451E0,1.092752605E1
1.395301667E0,1.089508769E0,-1.504091211E1,-6.987718574E0,1.662059798E1
1.405245667E0,-3.006065261E-1,-1.797642252E1,3.236267218E0,1.826788320E1
1.415188667E0,-5.078958759E0,-1.010980546E1,6.023390506E0,1.281737967E1
1.425132667E0,-3.952417234E0,-3.984854078E-1,1.971343734E0,4.434702778E0
1.435075667E0,7.079340935E-1,3.139846047E0,-2.223497307E-1,3.226335891E0
1.445019667E0,2.053412914E0,3.212928057E0,-1.911396325E0,4.265307398E0
1.454963667E0,1.321114057E0,2.344566831E0,-2.478529465E0,3.658612344E0
1.464906667E0,5.856325614E-1,1.443288120E0,-1.526936048E0,2.181187702E0
1.474850667E0,1.325335747E-1,9.178584909E-1,-8.868799424E-1,1.283193434E0
1.484793667E0,-1.825933421E-1,8.739330375E-1,-5.169640303E-1,1.031673927E0
1.494737667E0,-4.345410937E-1,9.861071920E-1,-5.989501798E-1,1.232872530E0
1.504680667E0,-5.572460836E-1,8.120975626E-1,-5.206232178E-1,1.114035091E0
1.514624667E0,-4.851165855E-1,7.128323060E-1,-5.125049436E-1,1.003059976E0
1.524568667E0,5.370316744E-2,1.229989879E0,-5.231211483E-1,1.337690124E0
1.534511667E0,-7.648076212E-1,2.233642811E0,-5.215038085E-1,2.417862099E0
1.544455667E0,-3.558480960E-1,3.530464026E0,-8.083611917E-1,3.639265300E0
1.554398667E0,1.062429144E0,4.829319488E0,-5.495014465E-1,4.975242129E0
1.564342667E0,1.559163854E0,4.419770563E0,4.248937726E-2,4.686914668E0
1.574285667E0,1.644277972E-1,3.166250904E0,9.130602658E-1,3.299372718E0
1.584229667E0,-6.353186917E-1,1.668127595E0,1.547704189E0,2.362555347E0
1.594172667E0,-8.962755409E-1,4.714721078E-1,9.780567455E-1,1.407902976E0
1.604116667E0,-1.323065273E0,2.981103498E-1,3.755742627E-1,1.407276634E0
1.614060667E0,-3.182130772E-1,-3.572952819E-1,4.635263264E-1,6.661652469E-1
1.624003667E0,-1.440154597E-1,-7.429554069E-1,2.199055946E-1,7.880873428E-1
1.633947667E0,-5.325845745E-1,-6.608838880E-1,9.420367277E-1,1.268009085E0
1.643890667E0,9.903633803E-2,-1.230229030E0,1.015924484E0,1.598553790E0
1.653834667E0,3.178064033E-1,-1.949191557E0,6.964507467E-1,2.094132823E0
1.663777667E0,7.764763248E-1,-2.886085074E0,3.409955835E-1,3.008102479E0
1.673721667E0,1.342110532E0,-3.542237395E0,-1.559339125E-2,3.788000739E0
1.683664667E0,1.531943019E0,-3.693687882E0,-1.742234549E-2,3.998810213E0
1.693608667E0,1.074348693E0,-2.824275911E0,3.358559541E-1,3.040322147E0
1.703552667E0,5.504410940E-1,-3.572941124E-1,3.190965915E-1,7.297034435E-1
1.713495667E0,-8.875810236E-2,2.037947613E0,-4.245020092E-1,2.083581155E0
1.723439667E0,-1.650675118E0,1.862351049E1,-2.159360368E0,1.882080521E1
1.733382667E0,-3.561453100E0,2.421083612E1,3.474220244E0,2.471677042E1
1.743326667E0,-5.215923938E-1,-1.831556688E0,5.773870518E0,6.079822307E0
1.753269667E0,3.653518680E-1,5.180872804E-1,1.993594143E0,2.091964155E0
1.763213667E0,4.833378625E-1,1.372840866E0,-8.989228678E-1,1.710663571E0
1.773156667E0,1.114298040E0,2.567290199E-1,-2.214838750E0,2.492605184E0
1.783100667E0,9.667988089E-1,-4.795020890E-1,-2.088840609E0,2.351143823E0
1.793044667E0,1.183104565E0,-1.695036482E0,-2.252963766E0,3.057569430E0
1.802987667E0,8.406270048E-1,8.573971117E-1,2.225286555E-1,1.221188999E0
1.812931667E0,4.319732890E-1,1.188894478E0,2.098258719E0,2.450053194E0
1.822874667E0,-8.868738028E-1,1.149012959E-1,1.434127872E0,1.690109524E0
1.832818667E0,-1.842519340E0,1.349639114E0,1.559215018E0,2.765421257E0
1.842761667E0,-1.650426465E0,1.059381575E0,2.459417256E0,3.145620778E0
1.852705667E0,-5.543408945E-2,6.814579010E-2,2.053595932E0,2.055473920E0
1.862649667E0,1.235129289E0,-5.351827848E-1,-3.732301140E-1,1.396877121E0
1.872592667E0,9.185019770E-1,1.271503356E0,-3.876715672E-1,1.615752429E0
1.882536667E0,1.128574894E0,9.979928273E-1,-7.839256775E-1,1.698296335E0
1.892479667E0,1.252796359E0,-8.842013329E-1,-1.094199405E0,1.883768312E0
1.902423667E0,9.736049679E-1,-1.825543411E0,-1.538831624E0,2.578472057E0
1.912366667E0,2.034575597E-1,3.135332581E0,-5.145000136E-1,3.183773805E0
1.922310667E0,-1.337482168E0,1.300521216E1,4.836318605E0,1.393966928E1
1.932253667E0,-3.086713860E0,5.152517316E0,-6.500653696E-1,6.041425505E0
1.942197667E0,-2.901038743E0,1.246290045E1,4.518928816E0,1.357057962E1
1.952141667E0,-6.528259571E0,-1.475866818E1,-2.046595645E0,1.626729889E1
1.962084667E0,-1.831060259E0,-2.997881966E1,-1.728719133E1,3.465442820E1
1.972028667E0,1.670211777E1,-1.610271034E1,-9.479009002E-1,2.321974449E1
1.981971667E0,1.242625244E1,-8.258593939E0,1.642923757E0,1.501050706E1
1.991915667E0,-2.938098688E0,-1.853377912E0,4.925372284E0,6.027165646E0
2.001858667E0,-6.749225850E0,-7.888554651E-1,5.821038837E0,8.947560319E0
2.011802667E0,-5.125334780E0,-4.049687421E0,1.431907684E0,6.687255374E0
2.021745667E0,-2.672433077E0,-1.492671365E0,-2.361199821E0,3.865906225E0
2.031689667E0,2.826513933E0,-2.590485519E0,-2.085453901E0,4.364506182E0
2.041633667E0,2.593670205E0,-2.140748096E0,-1.553966557E0,3.704691566E0
2.051576667E0,1.356647879E0,-1.901518039E0,-6.350959128E-1,2.420663367E0
2.061520667E0,1.004561297E0,-8.420060706E-1,2.769042528E-1,1.339699066E0
2.071463667E0,8.466469326E-1,-1.163929206E-1,-1.091762140E-1,8.615554458E-1
2.081407667E0,9.641686582E-1,1.450425231E-1,-1.117647763E-1,9.814020074E-1
2.091350667E0,1.151669641E0,6.123508286E-1,2.929396570E-1,1.336835870E0
2.101294667E0,1.351800245E0,2.017732034E0,-2.720955026E-1,2.443899022E0
2.111238667E0,6.253567904E-1,1.657710781E0,-1.089042161E0,2.079684826E0
2.121181667E0,1.691370277E0,1.528209572E0,-1.547166245E0,2.754973920E0
2.131125667E0,2.937959817E0,2.751123151E0,-2.427227165E0,4.700182782E0
2.141068667E0,2.424551771E0,-1.114947081E-1,-2.306537125E0,3.348282525E0
2.151012667E0,1.624643899E0,-2.037641804E0,-1.846684020E0,3.194009046E0
2.160955667E0,1.129625419E0,-2.452060874E0,-1.646145573E0,3.162032790E0
2.170899667E0,1.017826071E0,-2.843326140E0,-5.705514959E-1,3.073434961E0
2.180842667E0,9.506954308E-1,-4.228214609E0,1.185132233E0,4.492900955E0
2.190786667E0,9.755782570E-1,-3.968211733E0,4.940340644E-1,4.116130094E0
2.200730667E0,8.599010356E-2,-2.467078863E0,-6.819268477E-1,2.561034291E0
2.210673667E0,-3.111248631E-1,-1.598354525E0,-1.220803903E0,2.035165359E0
2.220617667E0,-3.462196322E-1,-1.268787909E0,-1.429768188E0,1.942659997E0
2.230560667E0,-3.574173425E-1,-8.205982447E-1,-1.526743090E0,1.769766397E0
2.240504667E0,-4.008253174E-1,-4.568452978E-1,-1.408409479E0,1.533944530E0
2.250447667E0,-3.381164145E-1,-4.264122945E-1,-1.204783702E0,1.321988624E0
2.260391667E0,-3.926313948E-1,-4.136495769E-1,-7.872808099E-1,9.721504298E-1
2.270335667E0,-4.570708542E-1,-5.535161448E-1,-3.745820633E-1,8.096947637E-1
2.280278667E0,-5.220150013E-1,-7.015255451E-1,-1.427181087E-2,8.745521349E-1
2.290222667E0,-7.250748407E-1,-8.415587586E-1,1.413962726E-1,1.119798006E0
2.300165667E0,-1.132669918E0,-8.877049845E-1,4.246471663E-1,1.500428772E0
2.310109667E0,-1.759162019E0,-8.259233040E-1,2.000596915E0,2.789119633E0
2.320052667E0,-1.884120233E0,-6.060709190E-1,4.663948535E0,5.066522175E0
2.329996667E0,-1.430242105E0,-2.301592720E-1,5.879482927E0,6.055318758E0
2.339939667E0,-7.993977025E-1,9.238951564E-2,4.542767329E0,4.613491901E0
2.349883667E0,9.570664108E-2,1.528006089E-1,1.710302392E0,1.719779655E0
2.359827667E0,1.126594734E0,-1.536852926E-1,-2.752699560E-1,1.169875384E0
2.369770667E0,1.619454349E0,-7.789216304E-1,-7.516253659E-1,1.947894244E0
2.379714667E0,1.574470549E0,-1.559703260E0,-3.275192133E-1,2.240290295E0
2.389657667E0,1.632981298E0,-2.257369058E0,1.777018538E-1,2.791759469E0
2.399601667E0,1.862531582E0,-2.597720279E0,7.112760696E-1,3.274612677E0
2.409544667E0,2.112293060E0,-2.518208086E0,1.395303237E0,3.570717723E0
2.419488667E0,2.038934769E0,-2.003737893E0,1.985571471E0,3.480619859E0
2.429432667E0,1.521945011E0,-9.822527075E-1,2.252530780E0,2.890507207E0
2.439375667E0,7.816109110E-1,3.754742754E-1,2.334320463E0,2.490170390E0
2.449319667E0,1.438887213E-1,1.635306004E0,2.562560386E0,3.043295159E0
2.459262667E0,-2.213274913E-1,2.451028841E0,2.798271005E0,3.726506253E0
2.469206667E0,-3.391181888E-1,2.599935204E0,2.893403741E0,3.904670206E0
2.479149667E0,-3.328164983E-1,2.245429628E0,2.853991461E0,3.646640687E0
2.489093667E0,-1.930896789E-1,1.662155834E0,2.764502749E0,3.231488990E0
2.499036667E0,1.132542814E-1,1.130966697E0,2.648007795E0,2.881641457E0
2.508980667E0,4.478505260E-1,9.997604406E-1,2.527422713E0,2.754624585E0
2.518924667E0,4.212547579E-1,1.438768807E0,2.423110725E0,2.849381834E0
2.528867667E0,-1.169310106E-1,2.483410136E0,2.133056669E0,3.275809750E0
2.538811667E0,-6.345038822E-1,3.758080344E0,1.761844721E0,4.198792668E0
2.548754667E0,-6.786029980E-1,5.103615298E0,1.607408938E0,5.393621662E0
2.558698667E0,-1.031726584E-2,6.225105997E0,1.452186998E0,6.392252983E0
2.568641667E0,1.068217887E0,7.022291991E0,7.392237139E-1,7.141437247E0
2.578585667E0,2.072341813E0,7.651528993E0,-4.370817089E-1,7.939240325E0
2.588529667E0,3.013735054E0,7.830839124E0,-1.793070899E0,8.580194847E0
2.598472667E0,3.232994531E0,7.650882291E0,-2.465566773E0,8.664137175E0
2.608416667E0,2.570158258E0,8.168761411E0,-2.387091876E0,8.890027226E0
2.618359667E0,1.300545745E0,9.279144155E0,-2.391767310E0,9.670288845E0
2.628303667E0,-3.422360703E-1,9.799920570E0,-2.487030147E0,1.011636732E1
2.638246667E0,-2.422692210E0,8.780982431E0,-2.415671897E0,9.423935522E0
2.648190667E0,-4.083791891E0,5.264661650E0,-2.111719009E0,6.989518987E0
2.658133667E0,-4.476305245E0,3.173833573E-1,-2.102623665E0,4.955710556E0
2.668077667E0,-5.257525708E0,-4.528784882E0,-1.454945714E0,7.090016651E0
2.678021667E0,-4.962861707E0,-7.774241585E0,-3.680950892E-1,9.230618751E0
2.687964667E0,-1.714926370E0,-1.003153463E1,-4.538057397E0,1.114300787E1
2.697908667E0,7.861585830E-1,-1.080905994E1,-2.173359772E0,1.105338477E1
2.707851667E0,3.512193816E0,-9.904175255E0,4.221430085E0,1.132469270E1
2.717795667E0,5.073927230E0,-8.599008894E0,1.525053245E0,1.010017222E1
2.727738667E0,2.686133980E0,-9.079964601E0,-1.076599637E1,1.433763407E1
2.737682667E0,-2.011600059E0,-1.212542489E1,-1.162417818E1,1.691726875E1
2.747625667E0,-6.780393264E0,-1.665379170E1,-3.282383623E0,1.827830826E1
2.757569667E0,-4.729209601E0,-2.036277414E1,-1.274548586E0,2.094355434E1
2.767513667E0,9.328172766E-2,-2.021486999E1,-1.306320017E0,2.025724913E1
2.777456667E0,1.842384562E-1,-1.621891322E1,8.073671651E-1,1.624004100E1
2.787400667E0,-1.194077962E0,-1.234335413E1,7.044892064E-1,1.242097091E1
2.797343667E0,-1.481349986E0,-1.051032219E1,-4.742150366E-1,1.062478942E1
2.807287667E0,-9.351946083E-1,-9.845465702E0,-1.013941108E0,9.941622625E0
2.817230667E0,-5.898767629E-1,-9.603953476E0,-1.412405466E0,9.725161498E0
2.827174667E0,-1.113573497E0,-8.950272188E0,-1.872378878E0,9.211580800E0
2.837118667E0,-1.548016869E0,-6.821581051E0,-2.579654721E0,7.455531016E0
2.847061667E0,-9.008549340E-1,-3.264339700E0,-3.472788845E0,4.850537667E0
2.857005667E0,-1.337166126E-1,9.935951364E-1,-3.850156449E0,3.978544471E0
2.866948667E0,1.382164836E-2,5.506482024E0,-3.593408718E0,6.575265891E0
2.876892667E0,-2.331483686E-1,9.574801013E0,-2.764811482E0,9.968718831E0
2.886835667E0,-7.094058377E-1,1.272316704E1,-1.264862673E0,1.280555011E1
2.896779667E0,-1.133986419E0,1.472924850E1,7.596855334E-1,1.479235642E1
2.906723667E0,-1.726268215E0,1.512486292E1,2.529432109E0,1.543176941E1
2.916666667E0,-2.542637753E0,1.282976178E1,2.508248523E0,1.331762384E1
2.926610667E0,-1.381957406E0,8.587618518E0,3.195343140E0,9.266456489E0
2.936553667E0,7.798589391E-1,5.844468046E0,4.141410939E0,7.205364062E0
2.946497667E0,1.390148478E0,5.141338609E0,3.917076663E0,6.611305852E0
2.956440667E0,1.075829939E0,5.387732091E0,3.396951628E0,6.459438637E0
2.966384667E0,1.272865026E0,6.144222633E0,4.078199029E0,7.483539567E0
2.976328667E0,1.861211573E0,7.291339924E0,6.448165580E0,9.909923600E0
2.986271667E0,2.266764949E0,8.378778194E0,7.031541116E0,1.117070803E1
2.996215667E0,2.077878687E0,9.354847471E0,5.085612305E0,1.084869594E1
3.006158667E0,2.019228337E0,1.004592813E1,2.677671597E0,1.059093388E1
3.016102667E0,2.167004872E0,1.020787964E1,1.370406231E0,1.052495748E1
3.026045667E0,2.499316902E0,9.846001307E0,1.335608428E0,1.024569063E1
3.035989667E0,3.276546932E0,9.028286324E0,1.704182843E0,9.754483734E0
3.045932667E0,3.532004768E0,8.208852260E0,2.086915705E0,9.176901997E0
3.055876667E0,2.780783152E0,7.886917430E0,2.411803379E0,8.703620915E0
3.065820667E0,1.955267837E0,7.986327698E0,2.580380945E0,8.617590628E0
3.075763667E0,1.606311562E0,7.975526136E0,2.556897650E0,8.528011467E0
3.085707667E0,1.685589428E0,7.730999086E0,2.330927031E0,8.248804726E0
3.095650667E0,1.982062557E0,7.336968672E0,1.778793607E0,7.805369175E0
3.105594667E0,2.215894319E0,7.038174782E0,5.698933187E-1,7.400734443E0
3.115537667E0,2.258676788E0,7.263630554E0,-1.565599008E0,7.766147688E0
3.125481667E0,2.223097065E0,8.068626089E0,-3.209248696E0,8.963490654E0
3.135425667E0,2.355991413E0,9.346033963E0,-3.585529010E0,1.028372815E1
3.145368667E0,2.500110953E0,1.086908278E1,-3.534747697E0,1.169965626E1
3.155312667E0,1.992460222E0,1.220848693E1,-3.474416125E0,1.284868158E1
3.165255667E0,4.558097559E-1,1.216966025E1,-2.085003666E0,1.235538884E1
3.175199667E0,-1.346097748E0,1.010177840E1,1.327733105E0,1.027719715E1
3.185142667E0,-2.027779597E0,6.792870637E0,5.919956769E0,9.235846996E0
3.195086042E0,-1.771557970E0,2.849076292E0,1.018574442E1,1.072404041E1
3.205030042E0,8.448495716E-3,-1.942561399E0,1.833224606E0,2.671016403E0
3.214973042E0,4.391986349E0,-1.031708925E1,-1.918227627E1,2.221917185E1
3.224917042E0,4.772922216E0,-2.412292440E1,-2.277717602E1,3.351859209E1
3.234860042E0,-4.149867766E0,-3.445105554E1,-2.486654756E0,3.478907992E1
3.244804042E0,-3.116728495E0,-4.046552495E1,-1.013420121E1,4.183150415E1
3.254747042E0,3.557734271E0,-3.301623302E1,-1.214983117E1,3.536025330E1
3.264691042E0,2.501777995E-1,-1.619157281E1,2.015365666E0,1.631843491E1
3.274635042E0,-6.584099311E0,-4.026295050E0,1.298558423E0,7.826089032E0
3.284578042E0,-1.339802109E1,1.234027966E0,-5.249372935E0,1.444249668E1
3.294522042E0,-1.393546090E1,-1.585291260E-1,-8.204137065E0,1.617189126E1
3.304465042E0,-1.050627708E1,-7.051979474E0,-1.202441541E1,1.745562484E1
3.314409042E0,-5.913555238E0,-1.632353043E1,-7.882239658E0,1.906718342E1
3.324352042E0,-1.149541840E0,-2.319295750E1,-2.741186392E0,2.338266081E1
3.334296042E0,4.190388094E-1,-2.566709219E1,1.023370913E-1,2.567071655E1
3.344240042E0,2.234981239E-2,-2.287963094E1,1.770022345E0,2.294800624E1
3.354183042E0,1.255785602E0,-1.781436343E1,-1.158245713E-2,1.785857430E1
3.364127042E0,2.522326280E0,-1.348237887E1,-2.672104755E0,1.397414805E1
3.374070042E0,3.072231184E0,-1.024066030E1,-4.130837711E0,1.146183004E1
3.384014042E0,3.097171898E0,-7.592658641E0,-3.988604482E0,9.118656958E0
3.393957042E0,2.619668972E0,-4.966961775E0,-2.656659335E0,6.212182677E0
3.403901042E0,2.215031562E0,-2.233595449E0,-1.474890274E0,3.474279029E0
3.413845042E0,2.205923501E0,1.007668800E0,-1.340222466E0,2.770864695E0
3.423788042E0,2.395808467E0,4.903807168E0,-1.794288436E0,5.745145250E0
3.433732042E0,2.569635517E0,8.880269322E0,-1.767450885E0,9.412018517E0
3.443675042E0,2.272414236E0,1.249946309E1,-1.157759224E0,1.275699222E1
3.453619042E0,1.019072624E0,1.517907596E1,1.259455168E-1,1.521376740E1
3.463562042E0,-6.708803610E-1,1.737535331E1,2.650926433E0,1.758921244E1
3.473506042E0,-2.327899050E0,1.729131128E1,3.801274896E0,1.785660244E1
3.483450042E0,-2.815170335E0,1.322678772E1,1.165816687E0,1.357321723E1
3.493393042E0,-1.967757344E0,9.143691650E0,9.025083804E-1,9.396472068E0
3.503337042E0,-1.538886880E0,6.760688147E0,2.971286023E0,7.543448659E0
3.513280042E0,-1.417916467E0,5.335726955E0,3.857782388E0,6.735202610E0
3.523224042E0,-4.053788365E-1,4.564082769E0,2.841282538E0,5.391481242E0
3.533167042E0,2.962909886E-1,4.073592592E0,5.301962793E-1,4.118622713E0
3.543111042E0,6.541530119E-1,4.587869827E0,-8.698958275E-1,4.715207786E0
3.553055042E0,1.202401839E0,6.268192960E0,-4.810176873E-1,6.400577410E0
3.562998042E0,1.624511606E0,8.119410911E0,1.311338828E0,8.383524379E0
3.572942042E0,1.694036608E0,9.719395055E0,3.678567567E0,1.052939977E1
3.582885042E0,1.699303926E0,1.099693683E1,4.374466044E0,1.195642951E1
3.592829042E0,2.172098089E0,1.180540912E1,3.771961634E0,1.258226487E1
3.602772042E0,3.283136160E0,1.195124569E1,3.147078761E0,1.278731252E1
3.612716042E0,4.749130188E0,1.138913180E1,2.947479669E0,1.268677253E1
3.622660042E0,5.693571290E0,1.071274929E1,3.581176928E0,1.264929166E1
3.632603042E0,5.658255277E0,1.039304458E1,4.468251582E0,1.264897232E1
3.642547042E0,5.047008988E0,1.020418069E1,4.923449135E0,1.240314293E1
3.652490042E0,4.365582077E0,9.931109869E0,4.617901419E0,1.179026139E1
3.662434042E0,3.727628045E0,9.439497027E0,3.370621908E0,1.069394254E1
3.672377042E0,3.077201610E0,8.699925989E0,1.791566995E0,9.400403941E0
3.682321042E0,2.337649575E0,7.913874848E0,6.716043194E-1,8.279195191E0
3.692265042E0,1.578978606E0,7.234116733E0,-2.038513331E-1,7.407237927E0
3.702208042E0,7.350968222E-1,6.759610505E0,-6.743310222E-1,6.832819612E0
3.712152042E0,-2.782639497E-1,6.687591519E0,-8.486879763E-1,6.746968389E0
3.722095042E0,-9.837135612E-1,7.093061426E0,-8.643725476E-1,7.212929548E0
3.732039042E0,-1.393694083E0,7.545861620E0,-1.040666392E0,7.743732778E0
3.741983042E0,-1.983600959E0,7.386011608E0,-2.287475202E0,7.982504810E0
3.751926042E0,-2.294747384E0,5.842705695E0,-3.687878965E0,7.280352097E0
3.761870042E0,-2.898355164E0,2.515955154E0,-3.906277148E0,5.476266442E0
3.771813042E0,-4.047738836E0,-2.466748495E0,-2.416956238E0,5.320781454E0
3.781757042E0,-7.041101314E0,-7.938654764E0,4.861562204E0,1.167193790E1
3.791700042E0,-1.145388387E1,-1.389188979E1,5.654806005E0,1.887201337E1
3.801644042E0,-9.749377238E0,-1.949904450E1,-6.771473336E0,2.282796408E1
3.811588042E0,-2.326137869E0,-2.335538379E1,-1.399052063E1,2.732433964E1
3.821531042E0,1.144644285E0,-2.166339137E1,3.047644812E-1,2.169575114E1
3.831475042E0,9.801688768E0,-1.860910763E1,-7.882631421E-1,2.104740716E1
3.841418042E0,1.046219960E1,-1.710063241E1,-3.575016301E0,2.036344742E1
3.851362042E0,7.443507864E0,-1.645222180E1,-9.408848262E-1,1.808221988E1
3.861306042E0,5.200674984E0,-1.780109493E1,-5.806369343E0,1.943295979E1
3.871249042E0,-1.333592308E0,-1.881427473E1,-1.041773621E1,2.154726502E1
3.881193042E0,-6.410684343E0,-1.884341375E1,-9.783798042E0,2.217867939E1
3.891136042E0,-8.135974318E0,-1.770600400E1,-6.338009300E0,2.049065684E1
3.901080042E0,-7.886716286E0,-1.571792846E1,-4.114399141E0,1.806050523E1
3.911023042E0,-7.131372968E0,-1.351765980E1,-7.871287823E-1,1.530369820E1
3.920967042E0,-6.500042662E0,-1.238760586E1,1.191112619E0,1.404001719E1
3.930911042E0,-5.401975908E0,-1.225622126E1,1.601088098E0,1.348924707E1
3.940854042E0,-3.936178932E0,-1.186455838E1,1.752148868E0,1.262264932E1
3.950798042E0,-2.687972637E0,-1.049618830E1,1.566428435E0,1.094755058E1
3.960741042E0,-1.220261501E0,-7.890864885E0,1.039979052E0,8.052101788E0
3.970685042E0,5.682723974E-1,-4.748723221E0,7.308572254E-1,4.838125467E0
3.980628042E0,2.601377712E0,-1.358049749E0,4.736931726E-1,2.972515827E0
3.990572042E0,4.442587276E0,2.011107724E0,-3.277130485E-2,4.876700723E0
4.000516042E0,5.205321182E0,5.180153596E0,-6.043752265E-1,7.368488943E0
4.010459042E0,4.911358847E0,8.365384562E0,-6.980525914E-1,9.725655866E0
4.020403042E0,4.462498507E0,1.137977392E1,-3.591359854E-1,1.222874180E1
4.030346042E0,3.886417372E0,1.383809190E1,7.743491077E-1,1.439432680E1
4.040290042E0,2.922736299E0,1.551959325E1,2.683149269E0,1.601872192E1
4.050234042E0,8.845308966E-1,1.571211399E1,2.985780101E0,1.601773404E1
4.060177042E0,-1.572892824E0,1.336590117E1,1.008055301E0,1.349583200E1
4.070121042E0,-2.181976229E0,9.746775227E0,-2.275139916E-1,9.990616107E0
4.080064042E0,-1.496817479E0,6.688764471E0,-1.166743179E-1,6.855191143E0
4.090008042E0,-4.913459167E-1,4.667065101E0,7.769195437E-2,4.693501199E0
4.099951042E0,5.593829486E-1,3.642721211E0,-7.196846581E-1,3.755033038E0
4.109895042E0,1.927875533E0,3.478531981E0,-2.139578068E0,4.516047289E0
4.119839042E0,2.870513062E0,4.640523419E0,-2.525135282E0,6.012537820E0
4.129782042E0,2.787954177E0,6.887938178E0,-6.040176693E-1,7.455281227E0
4.139726042E0,2.285004607E0,9.121420190E0,2.813913184E0,9.815276855E0
4.149669042E0,1.908661143E0,1.092504765E1,6.684488987E0,1.294921027E1
4.159613042E0,1.895263564E0,1.243232887E1,1.006421238E1,1.610724048E1
4.169557042E0,1.781110127E0,1.339862102E1,1.010797411E1,1.687798978E1
4.179500042E0,1.853471175E0,1.337933222E1,6.739747514E0,1.509523377E1
4.189444042E0,3.095478252E0,1.219729185E1,3.382947546E0,1.303074243E1
4.199386708E0,3.122628336E0,1.011335940E1,1.420957311E0,1.067941785E1
4.209330708E0,1.891362010E0,7.809946437E0,3.242292774E-1,8.042240871E0
4.219273708E0,1.065786176E0,6.062791969E0,-1.091470510E-2,6.155766870E0
4.229217708E0,1.574332117E-1,5.201719882E0,1.278669704E0,5.358887119E0
4.239161708E0,-5.265818960E-1,5.376534673E0,3.621084467E0,6.503588725E0
4.249104708E0,-2.276223113E-1,5.946758067E0,5.083048301E0,7.826437469E0
4.259048708E0,3.684258954E-1,6.466609452E0,5.000411941E0,8.182719293E0
4.268991708E0,6.361144247E-1,6.933129553E0,3.932266267E0,7.995976798E0
4.278935708E0,6.433007258E-1,7.465393993E0,2.761139431E0,7.985601683E0
4.288879708E0,1.761330824E-1,8.282652892E0,1.870322266E0,8.493024619E0
4.298822708E0,-9.333486423E-1,9.571240059E0,1.354830272E0,9.711608570E0
4.308766708E0,-1.964265533E0,1.085481791E1,1.265787995E0,1.110349631E1
4.318709708E0,-2.224202482E0,1.103251831E1,7.144420445E-3,1.125449190E1
4.328653708E0,-2.366509677E0,8.837122133E0,-3.722853794E0,9.876980106E0
4.338597708E0,-2.978952015E0,4.596259997E0,-4.512142830E0,7.096421209E0
4.348540708E0,-2.932716619E0,-8.207631361E-1,-1.479012269E-1,3.048992238E0
4.358484708E0,-1.485000549E0,-7.848108875E0,-5.697554998E0,9.811226860E0
4.368427708E0,-3.305067750E-1,-1.814480596E1,-2.215598888E1,2.863967635E1
4.378371708E0,-2.396208124E0,-3.146772659E1,-2.299905213E1,3.905017323E1
4.388314708E0,-1.338468155E0,-3.948707059E1,-9.681825525E-1,3.952160951E1
4.398258708E0,8.864197665E0,-3.601775382E1,-4.771693131E0,3.739815030E1
4.408202708E0,1.427741309E1,-2.365685688E1,-8.355272387E0,2.886697037E1
4.418145708E0,1.107200689E1,-1.331169865E1,3.740419999E0,1.771387590E1
4.428089708E0,3.072934604E0,-4.457087494E0,1.159409308E-1,5.414979068E0
4.438032708E0,-3.722248314E0,5.478993094E-1,-8.607672129E0,9.394005836E0
4.447976708E0,-8.200538689E0,1.583635329E0,-1.089264004E1,1.372611900E1
4.457920708E0,-1.307451219E1,-1.001770129E0,-1.133522048E1,1.733302154E1
4.467863708E0,-1.259079777E1,-7.464602864E0,-8.706830381E0,1.703107101E1
4.477807708E0,-5.871913707E0,-1.621627262E1,-5.535978888E0,1.811336331E1
4.487750708E0,-3.205588705E-1,-2.259807113E1,-2.468216439E0,2.273472387E1
4.497694708E0,2.587331530E0,-2.348409270E1,-3.063040531E-1,2.362817633E1
4.507638708E0,1.844633547E0,-1.868495888E1,7.756331563E-2,1.877595210E1
4.517581708E0,2.215564828E-1,-1.301949340E1,-3.118948683E-1,1.302511321E1
4.527525708E0,-1.550241880E0,-8.760230078E0,-1.098609668E0,8.963917900E0
4.537468708E0,-2.573171913E0,-5.445509598E0,-1.531695682E0,6.214569988E0
4.547412708E0,-2.401278391E0,-2.946455821E0,-2.051661965E0,4.319381511E0
4.557355708E0,-1.685458158E0,-5.682137060E-1,-1.874422918E0,2.584007990E0
4.567299708E0,-9.370817971E-1,1.808204663E0,-1.033790066E0,2.283954531E0
4.577243708E0,-1.537627682E-1,3.933448282E0,-3.657760835E-1,3.953409986E0
4.587186708E0,3.935059921E-1,6.182857525E0,-1.185332939E-2,6.195378491E0
4.597130708E0,8.149064919E-1,8.481459394E0,-1.191497366E-1,8.521350991E0
4.607073708E0,1.281594919E0,1.039118985E1,-1.895959675E-1,1.047164068E1
4.617017708E0,1.454692237E0,1.177393940E1,4.705942945E-1,1.187279401E1
4.626961708E0,8.590882726E-1,1.284778524E1,2.121046926E0,1.304999840E1
4.636904708E0,-4.856954598E-1,1.355831549E1,3.989852278E0,1.414152539E1
4.646848708E0,-1.915309428E0,1.240006510E1,3.107329681E0,1.292615653E1
4.656791708E0,-2.435203644E0,9.285389566E0,4.304720163E-1,9.609057307E0
4.666735708E0,-2.343699397E0,6.818436418E0,-5.190443234E-1,7.228651953E0
4.676679708E0,-2.231726386E0,5.940517334E0,2.941127546E-1,6.352704241E0
4.686622708E0,-1.655705770E0,5.900190257E0,9.264971673E-1,6.197741820E0
4.696566708E0,-6.614610082E-1,6.148795155E0,1.348933940E0,6.329678926E0
4.706509708E0,-7.894311234E-2,7.055786011E0,2.242865478E0,7.404106550E0
4.716453708E0,6.495620705E-2,8.683370183E0,3.490522281E0,9.358893248E0
4.726397708E0,4.175805138E-1,1.044561573E1,4.770929192E0,1.149117169E1
4.736340708E0,9.834945830E-1,1.179821237E1,5.661184148E0,1.312303633E1
4.746284708E0,1.551968709E0,1.239200647E1,5.634298650E0,1.370093984E1
4.756227708E0,2.422696011E0,1.213282513E1,4.147201729E0,1.304891504E1
4.766171708E0,3.760600494E0,1.095136948E1,1.294174765E0,1.165115865E1
4.776115708E0,5.777477666E0,9.142637397E0,-4.549696572E-1,1.082469695E1
4.786058708E0,7.348087152E0,7.331309152E0,4.966497798E-1,1.039178231E1
4.796002708E0,7.177652510E0,6.588709840E0,2.808673786E0,1.013994287E1
4.805945708E0,5.787265320E0,6.922668884E0,3.842683123E0,9.807242117E0
4.815889708E0,4.484664717E0,7.442852392E0,3.408130335E0,9.334003521E0
4.825833708E0,3.216771139E0,7.695268505E0,2.874411693E0,8.821962169E0
4.835776708E0,2.170815210E0,7.643310732E0,2.162651327E0,8.234664436E0
4.845720708E0,1.310448590E0,7.398154521E0,1.063771080E0,7.588252416E0
4.855663708E0,5.447011017E-1,6.932027353E0,-2.609469089E-1,6.958289718E0
4.865607708E0,-2.625538699E-2,6.169060435E0,-1.316840912E0,6.308095274E0
4.875551708E0,-4.784889858E-1,5.395282016E0,-2.302018689E0,5.885347040E0
4.885494708E0,-1.521053896E0,4.337204370E0,-4.372028340E0,6.343467388E0
4.895438708E0,-3.663418016E0,1.765843340E0,-8.584963297E0,9.499496254E0
4.905381708E0,-5.777363060E0,-2.957445663E0,-1.378248137E1,1.523421155E1
4.915325708E0,-9.656075556E0,-8.257528576E0,-1.148791934E1,1.712888975E1
4.925269708E0,-1.340448227E1,-9.991243805E0,2.124095226E0,1.685280031E1
4.935212708E0,-5.202789922E0,-8.760497296E0,1.184067952E1,1.562104438E1
4.945156708E0,5.965753917E0,-8.046226575E0,2.471931759E0,1.031709400E1
4.955099708E0,1.164250686E1,-1.117368062E1,-1.083867141E1,1.943903039E1
4.965043708E0,1.279050708E1,-1.491384275E1,-4.990092191E0,2.027118145E1
4.974987708E0,1.087443649E1,-1.501677948E1,3.894738545E0,1.894534305E1
4.984930708E0,1.135123483E1,-1.495173271E1,-1.787841150E0,1.885739163E1
4.994874708E0,7.615060494E0,-1.564948563E1,-7.479678156E0,1.894310250E1
5.004817708E0,3.322493184E-1,-1.553202910E1,-2.021122250E0,1.566650098E1
5.014761708E0,-5.695887372E0,-1.492455602E1,-1.168533011E0,1.601720871E1
5.024705708E0,-8.479705229E0,-1.545674503E1,-6.377322469E0,1.874797615E1
5.034648708E0,-8.593675649E0,-1.636112452E1,-6.756567614E0,1.967711520E1
5.044592708E0,-1.001635058E1,-1.479173067E1,-5.669225823E0,1.874200354E1
5.054535708E0,-1.039667220E1,-1.241825228E1,-7.168618562E0,1.771137698E1
5.064479708E0,-7.253610765E0,-1.224897773E1,-6.713886448E0,1.573939630E1
5.074423708E0,-4.415752941E0,-1.265693446E1,-4.130873086E0,1.402715140E1
5.084366708E0,-3.031452118E0,-1.179694001E1,-1.656082331E0,1.229227824E1
5.094310708E0,-1.935634495E0,-9.600147523E0,2.152629054E-1,9.795705768E0
5.104253708E0,-1.375099353E0,-6.360706437E0,1.217102323E0,6.620485078E0
5.114197708E0,-1.319093113E0,-2.868388476E0,1.137119722E0,3.355696702E0
5.124141708E0,-1.327846834E0,2.278712565E-1,5.396833867E-1,1.451330659E0
5.134084708E0,-1.282783512E0,2.945412093E0,1.922011945E-1,3.218373384E0
5.144028708E0,-8.457582289E-1,5.219396015E0,7.774340987E-2,5.288047445E0
5.153971708E0,5.016808704E-2,7.083122914E0,2.418232977E-1,7.087427288E0
5.163915708E0,1.237653825E0,8.773641837E0,5.556398535E-1,8.877911563E0
5.173859708E0,2.136316199E0,1.045289668E1,8.778715758E-1,1.070502473E1
5.183802708E0,2.569252524E0,1.170663327E1,1.424381587E0,1.206959751E1
5.193747208E0,2.591085443E0,1.217697745E1,2.011732060E0,1.261108915E1
5.203691208E0,2.056050446E0,1.159877787E1,2.391891271E0,1.201998900E1
5.213634208E0,1.622724843E0,9.980850964E0,2.533589187E0,1.042447582E1
5.223578208E0,1.430269587E0,8.057087778E0,2.482945575E0,8.551453285E0
5.233521208E0,1.001079719E0,6.947563990E0,2.285963258E0,7.382170007E0
5.243465208E0,7.375743605E-1,6.483716651E0,1.817998749E0,6.774047313E0
5.253409208E0,1.119639617E0,6.306419132E0,9.002468236E-1,6.467995013E0
5.263352208E0,1.913896156E0,6.438930488E0,-4.764790785E-1,6.734230218E0
5.273296208E0,2.478113143E0,6.907516994E0,-1.343100904E0,7.460479597E0
5.283239208E0,2.114259917E0,7.793178377E0,-9.859820616E-1,8.134856166E0
5.293183208E0,1.018928491E0,9.174340416E0,6.268472457E-1,9.252009230E0
5.303127208E0,1.293129283E-1,1.041040614E1,2.882016581E0,1.080274490E1
5.313070208E0,-2.909964810E-1,1.110515710E1,4.498852401E0,1.198536049E1
5.323014208E0,2.452678925E-1,1.106369215E1,4.842262884E0,1.207944329E1
5.332958208E0,1.392887606E0,1.041520553E1,4.290357063E0,1.135005753E1
5.342901208E0,2.291039811E0,9.503633382E0,3.295436655E0,1.031638569E1
5.352845208E0,2.908778118E0,8.471053104E0,2.189237009E0,9.220221772E0
5.362788208E0,3.195484058E0,7.520577675E0,1.242994087E0,8.265303457E0
5.372732208E0,3.165484918E0,6.794539433E0,6.753431752E-1,7.526097878E0
5.382676208E0,2.843987168E0,6.481690591E0,5.299226296E-1,7.097985202E0
5.392619208E0,2.316623718E0,6.651337613E0,6.207377824E-1,7.070527059E0
5.402563208E0,1.664567810E0,7.244504896E0,7.420651683E-1,7.470227433E0
5.412506208E0,1.090154667E0,8.015407071E0,5.834809323E-1,8.110218104E0
5.422450208E0,2.776648293E-1,8.684845435E0,-1.179380473E-1,8.690083278E0
5.432394208E0,-6.350894809E-1,8.946016000E0,-1.276781638E0,9.058957571E0
5.442337208E0,-9.636872131E-1,8.107470896E0,-1.999211271E0,8.405749406E0
5.452281208E0,-1.925068577E0,5.501639360E0,-8.228280804E-1,5.886507515E0
5.462225208E0,-4.765390710E0,7.156717139E-1,-5.992983815E-1,4.855954403E0
5.472168208E0,-7.370386679E0,-6.920995411E0,-6.354811274E0,1.194179231E1
5.482112208E0,-7.519154463E0,-1.834014273E1,-1.409522087E1,2.432228958E1
5.492055208E0,-4.061402902E0,-3.049664206E1,-2.107969424E1,3.729468702E1
5.501999208E0,3.024521705E0,-3.268200149E1,-1.507225084E1,3.611694476E1
5.511943208E0,8.830979633E0,-2.110165170E1,1.911172376E0,2.295470509E1
5.521886208E0,5.682076249E0,-9.183541009E0,6.406504169E0,1.255654059E1
5.531830208E0,1.642998163E0,-1.927970257E0,2.720604193E-1,2.547651693E0
5.541774208E0,-1.001615470E0,9.164627606E-1,-8.338152909E-1,1.593231145E0
5.551717208E0,-3.456637666E0,-2.324022054E0,-1.971907698E0,4.608453367E0
5.561661208E0,-2.759107231E0,-1.005073221E1,-8.841095901E0,1.366729188E1
5.571604208E0,-3.037556611E0,-1.800327645E1,-1.164145319E1,2.165336337E1
5.581548208E0,-3.545925819E0,-2.421822934E1,-8.624868790E0,2.595158153E1
5.591492208E0,-2.915019436E0,-2.805172941E1,-5.197277167E0,2.867766642E1
5.601435208E0,-1.992702004E0,-2.691084642E1,-4.629590588E0,2.737878057E1
5.611379208E0,-2.794339921E0,-2.003077158E1,-5.801532526E0,2.104038795E1
5.621323208E0,-4.938156636E0,-1.191857145E1,-6.215301386E0,1.432018533E1
5.631266208E0,-6.612499822E0,-5.899018475E0,-6.599900241E0,1.104908395E1
5.641210208E0,-6.951978053E0,-1.365085704E0,-6.769926163E0,9.799252935E0
5.651153208E0,-5.780138149E0,1.964805377E0,-5.484704654E0,8.206853376E0
5.661097208E0,-3.458635952E0,3.773841514E0,-2.392792912E0,5.650619465E0
5.671041208E0,-1.090080627E0,4.743866524E0,7.379839580E-1,4.923125602E0
5.680984208E0,9.324664436E-1,5.372207733E0,2.595755614E0,6.038878771E0
5.690928208E0,2.940254849E0,5.648423769E0,3.118507218E0,7.090477905E0
5.700872208E0,4.090468242E0,6.672909161E0,3.138903476E0,8.432814603E0
5.710815208E0,3.941150819E0,8.230151913E0,3.334552481E0,9.715313198E0
5.720759208E0,3.119569073E0,9.723704453E0,3.317790853E0,1.073731231E1
5.730702208E0,2.388346543E0,1.063834464E1,3.824587744E0,1.155448169E1
5.740646208E0,1.626677268E0,1.073491023E1,4.104552430E0,1.160739968E1
5.750590208E0,1.371517641E0,1.026057942E1,3.615018858E0,1.096489453E1
5.760533208E0,1.505110585E0,9.661685960E0,2.708924965E0,1.014651703E1
5.770477208E0,1.455487312E0,8.991742396E0,2.066296084E0,9.340206322E0
5.780421208E0,1.087886020E0,8.390000170E0,2.048294700E0,8.704660248E0
5.790364208E0,5.863187322E-1,8.094880087E0,2.483731148E0,8.487624738E0
5.800308208E0,3.613579273E-2,8.261344469E0,2.565030835E0,8.650462497E0
5.810251208E0,-3.530795856E-1,8.817035193E0,2.109792352E0,9.072816463E0
5.820195208E0,-3.036758758E-2,9.281464330E0,2.250751618E0,9.550517533E0
5.830139208E0,5.751485038E-1,9.316423663E0,2.777584140E0,9.738661064E0
5.840082208E0,9.311611989E-1,9.128431002E0,2.891530001E0,9.620616377E0
5.850026208E0,1.191856970E0,8.735084712E0,2.447763755E0,9.149523231E0
5.859970208E0,1.373714732E0,8.126909965E0,1.548239648E0,8.386346269E0
5.869913208E0,1.431132490E0,7.594187688E0,8.252596450E-1,7.771800327E0
5.879857208E0,1.271310690E0,7.431929793E0,4.106980486E-1,7.551058482E0
5.889801208E0,9.450752333E-1,7.747764223E0,-1.568033203E-1,7.806766612E0
5.899744208E0,6.398442905E-1,8.397931334E0,-7.893774752E-1,8.459182478E0
5.909688208E0,5.232990864E-1,9.028644758E0,-1.099305486E0,9.110364464E0
5.919631208E0,6.866918899E-1,9.362358220E0,-1.713152179E0,9.542546179E0
5.929575208E0,1.062682182E0,9.397518112E0,-2.792141368E0,9.860968183E0
5.939519208E0,1.428163566E0,9.291054933E0,-3.440880882E0,1.001014556E1
5.949462208E0,1.716372533E0,9.262077886E0,-3.147220848E0,9.931617215E0
5.959406208E0,1.699862481E0,9.428641672E0,-2.372552482E0,9.870046682E0
5.969350208E0,1.048671230E0,9.938166289E0,-1.569850810E0,1.011589305E1
5.979293208E0,-5.141961046E-1,1.050197119E1,-6.289615989E-1,1.053334654E1
5.989237208E0,-3.084329073E0,1.018301728E1,1.942407910E0,1.081572351E1
5.999180208E0,-7.127178760E0,8.568789314E0,8.351647114E0,1.392734134E1
6.009124208E0,-1.109945255E1,5.810187575E0,9.234241047E0,1.556365427E1
6.019068208E0,-1.362227351E1,-9.447931051E-2,-9.575923678E-1,1.365621635E1
6.029011208E0,-1.187154931E1,-1.085625633E1,-1.103734928E1,1.950935836E1
6.038955208E0,-8.528187418E0,-2.230202660E1,-1.121233071E1,2.637852785E1
6.048899208E0,-6.704718599E-1,-3.126411718E1,-7.382036671E0,3.213081109E1
6.058842208E0,1.326890639E1,-3.376267453E1,-8.188923780E0,3.718925303E1
6.068786208E0,1.929971993E1,-3.007792061E1,-4.523830244E0,3.602256984E1
6.078730208E0,1.022390919E1,-2.531105757E1,3.606322879E0,2.753513246E1
6.088673208E0,-2.106513818E0,-1.916699983E1,4.468892437E-1,1.928758650E1
6.098617208E0,-8.349207655E0,-1.231933260E1,3.373603696E-1,1.488586699E1
6.108560208E0,-9.807354720E0,-7.909136850E0,-1.701382465E0,1.271351071E1
6.118504208E0,-1.286145135E1,-6.961397333E0,-6.652213526E0,1.606642239E1
6.128448208E0,-1.543351638E1,-9.652332169E0,-7.485356387E0,1.968226370E1
6.138391208E0,-1.113729924E1,-1.390766558E1,-4.504059054E0,1.837795267E1
6.148335208E0,-4.109785103E0,-1.662228924E1,-6.092368940E-1,1.713365118E1
6.158279208E0,2.477709101E0,-1.728528280E1,1.290672283E0,1.750959391E1
6.168222208E0,4.900199436E0,-1.598866273E1,1.586757742E0,1.679782994E1
6.178166208E0,2.869767542E0,-1.250332108E1,5.806988271E-1,1.284156591E1
6.188110208E0,7.268919361E-1,-8.591282968E0,-9.786484838E-1,8.677342207E0
6.198053333E0,-6.720188139E-1,-4.575708203E0,-2.818493600E0,5.415959843E0
6.207997333E0,-1.347465119E0,-2.298949778E-1,-4.861734113E0,5.050244799E0
6.217940333E0,-1.351117436E0,4.030124976E0,-6.294315981E0,7.595119440E0
6.227884333E0,-6.811233672E-1,7.659991084E0,-5.705030079E0,9.575320394E0
6.237828333E0,5.621719974E-1,1.044937432E1,-3.175304732E0,1.093563081E1
6.247771333E0,2.061675906E0,1.229858434E1,-4.155511645E-1,1.247711373E1
6.257715333E0,2.799052777E0,1.377457126E1,1.568024433E0,1.414327439E1
6.267659333E0,2.437911197E0,1.480487287E1,2.914800750E0,1.528475499E1
6.277602333E0,9.528154119E-1,1.379030611E1,3.476072642E0,1.425354275E1
6.287546333E0,-4.583749294E-1,9.697491969E0,2.138277647E0,9.941010480E0
6.297490333E0,1.491134278E-1,6.203619234E0,6.388632008E-1,6.238210689E0
6.307433333E0,3.705855645E-1,4.430889629E0,-3.716268075E-1,4.461863181E0
6.317377333E0,1.456819162E-2,3.927012252E0,-1.050416039E0,4.065096716E0
6.327320333E0,-8.322517455E-2,4.335112821E0,-1.176812961E0,4.492774014E0
6.337264333E0,-1.680959018E-1,5.686254669E0,-3.872938371E-1,5.701907130E0
6.347208333E0,-3.550217383E-1,7.886081863E0,1.608240412E0,8.056225221E0
6.357151333E0,-8.275140390E-2,9.987772897E0,4.499197387E0,1.095468997E1
6.367095333E0,2.694414514E-1,1.154743113E1,6.592178993E0,1.329934541E1
6.377039333E0,6.065748759E-1,1.261688571E1,6.362300388E0,1.414328831E1
6.386982333E0,1.579577361E0,1.310620878E1,3.998516682E0,1.379332842E1
6.396926333E0,3.242778093E0,1.265989783E1,9.914715739E-1,1.310616796E1
6.406870333E0,3.939413611E0,1.120576780E1,-8.596249008E-1,1.190912115E1
6.416813333E0,4.216495619E0,9.196518320E0,-9.920408003E-1,1.016557571E1
6.426757333E0,3.806635623E0,7.652559857E0,-3.999508663E-1,8.556407414E0
6.436701333E0,2.182453946E0,7.257989745E0,2.525470912E-1,7.583224934E0
6.446644333E0,6.334668054E-1,7.298736652E0,1.102240058E0,7.408628082E0
6.456588333E0,-2.329499287E-1,7.267066963E0,1.535923073E0,7.431257471E0
6.466531333E0,-6.638753235E-1,7.189465640E0,1.253930719E0,7.328129972E0
6.476475333E0,-6.973806001E-1,7.104904377E0,6.991565457E-1,7.173201920E0
6.486419333E0,-6.862277672E-1,7.039708507E0,1.976826668E-1,7.075837961E0
6.496362333E0,-7.963100072E-1,6.997159488E0,-2.865476270E-1,7.048152955E0
6.506306333E0,-9.596139695E-1,6.950240260E0,-8.251231125E-1,7.064525943E0
6.516250333E0,-1.072241210E0,6.882961028E0,-1.150700465E0,7.060379967E0
6.526193333E0,-1.102623781E0,6.849844737E0,-1.203179226E0,7.041575987E0
6.536137333E0,-1.373091127E0,6.428920639E0,-1.693867038E0,6.788636488E0
6.546081333E0,-2.878387215E0,4.724419270E0,-1.647380505E0,5.772271036E0
6.556024333E0,-4.915270050E0,1.540276471E0,2.371615758E0,5.670704768E0
6.565968333E0,-5.071371996E0,-2.151537963E0,3.409963437E0,6.478871829E0
6.575912333E0,-3.021178852E0,-7.242975850E0,-8.642202276E0,1.167372610E1
6.585855333E0,-7.129435493E-1,-1.554898135E1,-2.335207661E1,2.806418699E1
6.595799333E0,-1.400350992E0,-2.306095076E1,-2.555900524E1,3.445331888E1
6.605742333E0,-2.722721762E0,-2.257326958E1,-4.733523969E0,2.322438293E1
6.615686333E0,3.529689270E0,-1.561674941E1,1.492872275E1,2.189082756E1
6.625630333E0,7.992124043E0,-8.116093785E0,1.032311188E1,1.537243195E1
6.635573333E0,4.912028938E0,-1.679092294E0,-1.496034683E0,5.402360502E0
6.645517333E0,2.288462504E0,3.191706172E0,2.359559092E0,4.581655599E0
6.655461333E0,2.129233174E0,6.076204312E0,1.521055503E0,6.615701217E0
6.665404333E0,2.090582056E-1,4.275727329E0,-6.649722612E0,7.908499247E0
6.675348333E0,-1.510086712E0,-1.852899025E0,-1.117904368E1,1.143173715E1
6.685292333E0,-3.989516940E0,-9.471262026E0,-8.218155765E0,1.315899441E1
6.695235333E0,-5.572843829E0,-1.805134407E1,-7.098829705E0,2.018169949E1
6.705179333E0,-6.825770581E0,-2.516769788E1,-9.318696476E0,2.769191695E1
6.715123333E0,-7.095630108E0,-2.802414692E1,-7.654067270E0,2.990460706E1
6.725066333E0,-6.299945095E0,-2.263143768E1,-5.906698793E0,2.422313709E1
6.735010333E0,-6.197653320E0,-1.313892395E1,-6.375296994E0,1.586463492E1
6.744954333E0,-6.406005986E0,-7.080793383E0,-6.512964424E0,1.155825476E1
6.754897333E0,-5.939958340E0,-2.977787542E0,-6.312043569E0,9.164726823E0
6.764841333E0,-4.509356339E0,-5.935017443E-1,-6.870411149E0,8.239483495E0
6.774784333E0,-3.689277327E0,-1.230581033E0,-6.763486040E0,7.801912604E0
6.784728333E0,-3.134569812E0,-5.696474433E0,-3.846920892E0,7.554743492E0
6.794672333E0,-1.295742258E0,-1.334797244E1,-4.120439315E-1,1.341704499E1
6.804615333E0,2.052302527E-1,-2.160941923E1,1.173047939E-1,2.161071214E1
6.814559333E0,2.424534814E-1,-2.493714684E1,3.015526056E-2,2.493834368E1
6.824503333E0,8.402967102E-1,-2.084482562E1,1.423805197E0,2.091028634E1
6.834446333E0,1.444447331E0,-1.334402206E1,1.636043923E0,1.352131623E1
6.844390333E0,1.025172221E0,-5.180074074E0,-1.369183286E-1,5.282318821E0
6.854334333E0,1.454896013E0,3.714854802E0,-4.623159528E-1,4.016292401E0
6.864277333E0,4.350489975E-1,1.082786225E1,-1.400169582E0,1.092668035E1
6.874221333E0,-2.111761840E0,1.489188178E1,-3.299090288E0,1.539843102E1
6.884165333E0,-3.002427416E0,1.638379067E1,-1.490818967E0,1.672320867E1
6.894108333E0,-2.924210089E0,1.576240589E1,7.808348393E-1,1.605036284E1
6.904052333E0,-2.289614406E0,1.126349151E1,1.169230292E0,1.155316730E1
6.913995333E0,-3.250673588E0,6.457088431E0,1.196504045E-1,7.230158090E0
6.923939333E0,-4.349049952E0,4.939910801E0,-4.635485458E-1,6.597865675E0
6.933883333E0,-2.723824255E0,4.970948406E0,7.094426751E-2,5.668737048E0
6.943826333E0,4.337213872E-1,5.797185121E0,1.732162793E0,6.065958911E0
6.953770333E0,2.896811791E0,7.105434719E0,3.929896098E0,8.621067477E0
6.963714333E0,3.863420273E0,8.643464105E0,5.981748390E0,1.119896432E1
6.973657333E0,4.087951600E0,9.844550028E0,6.040440402E0,1.225207875E1
6.983601333E0,4.089471291E0,1.096410238E1,4.120978428E0,1.240636045E1
6.993545333E0,3.782912592E0,1.191252777E1,7.504281485E-1,1.252125744E1
7.003488333E0,3.166634481E0,1.193130903E1,-2.606058408E0,1.261646739E1
7.013432333E0,3.046528578E0,1.067278708E1,-4.485176933E0,1.197107065E1
7.023376333E0,3.874470341E0,9.355852023E0,-3.643053918E0,1.076175308E1
7.033319333E0,4.355027853E0,8.768662933E0,5.560259159E-1,9.806369463E0
7.043263333E0,3.917494154E0,9.087980549E0,4.301826961E0,1.079091591E1
7.053207333E0,3.543579916E0,9.952017174E0,5.892844985E0,1.209649645E1
7.063150333E0,3.755671291E0,1.082245708E1,6.083763592E0,1.297084514E1
7.073094333E0,3.758308970E0,1.138630292E1,5.631644014E0,1.324719573E1
7.083038333E0,3.458697348E0,1.139873527E1,4.772158277E0,1.283227368E1
7.092981333E0,3.174544594E0,1.098048160E1,3.577795483E0,1.197703344E1
7.102925333E0,2.512655570E0,1.035333263E1,2.411295695E0,1.092333656E1
7.112869333E0,1.232131422E0,9.995067884E0,1.642187008E0,1.020373990E1
7.122812333E0,-1.709209840E-1,1.004136029E1,9.856559332E-1,1.009106774E1
7.132756333E0,-1.409868359E0,1.042297063E1,-1.594418764E-2,1.051790378E1
7.142699333E0,-2.393719257E0,1.093844830E1,-1.026422721E0,1.124424683E1
7.152643333E0,-2.619827139E0,1.090333343E1,-1.541835923E0,1.131916217E1
7.162587333E0,-2.343158383E0,9.875369532E0,-1.397781433E0,1.024534565E1
7.172530333E0,-2.007013796E0,8.268499707E0,-6.899910352E-1,8.536526191E0
7.182474333E0,-1.342295450E0,6.711305487E0,1.039589627E-1,6.845011752E0
7.192418333E0,2.636911534E-1,5.535617530E0,5.486783047E-1,5.568989347E0
7.202361958E0,2.458936323E0,4.560778508E0,6.264952433E-1,5.219153641E0
7.212305958E0,3.930799493E0,3.873161150E0,1.134054758E0,5.633705898E0
7.222249958E0,4.309143582E0,3.783281259E0,2.067933450E0,6.095759530E0
7.232192958E0,3.929756350E0,4.305987840E0,2.094320619E0,6.194408374E0
7.242136958E0,2.868197272E0,5.341411618E0,5.095009366E-1,6.084145369E0
7.252080958E0,2.091041647E0,6.051737223E0,-3.371803046E0,7.236368866E0
7.262023958E0,1.623785674E0,5.926070618E0,-6.358915434E0,8.842556100E0
7.271967958E0,-4.624646182E-1,5.331491232E0,2.043268579E-1,5.355410511E0
7.281911958E0,-3.659051315E0,4.486486709E0,1.394912702E1,1.510282636E1
7.291854958E0,-3.664803221E0,1.322684619E0,1.066720649E1,1.135647708E1
7.301798958E0,8.569562316E-2,-3.649449602E0,-1.255923450E1,1.307899833E1
7.311742958E0,2.784889067E0,-1.030200811E1,-2.146985555E1,2.397585610E1
7.321685958E0,-4.952575578E-1,-1.517314572E1,-5.634568207E0,1.619314639E1
7.331629958E0,3.038122621E-1,-2.131443422E1,-1.190505737E1,2.441572851E1
7.341572958E0,5.063305178E0,-3.367683273E1,-3.839348923E1,5.132081583E1
7.351516958E0,7.462016641E0,-4.238855255E1,-1.883942712E1,4.698292343E1
7.361460958E0,6.542767682E0,-3.342171169E1,2.019246112E1,3.959234910E1
7.371403958E0,1.320030276E0,-1.767426999E1,1.553556433E1,2.356853960E1
7.381347958E0,-8.594313580E0,-3.145632452E0,-5.127543274E0,1.049042084E1
7.391291958E0,-1.019508593E1,1.173511740E1,6.883400738E-2,1.554533678E1
7.401234958E0,-4.976891516E0,1.730171114E1,-4.191342652E0,1.848475076E1
7.411178958E0,-7.056204672E0,9.668537142E0,-1.607430339E1,2.004130396E1
7.421122958E0,-8.473897190E0,-2.811295677E0,-1.299441352E1,1.576594748E1
7.431065958E0,-6.624293656E0,-1.301238670E1,-8.155232123E0,1.672457129E1
7.441009958E0,-8.349087203E0,-2.261106598E1,-1.177119472E1,2.682403003E1
7.450953958E0,-7.039967539E0,-2.877221631E1,-9.627336491E0,3.114622260E1
7.460896958E0,-2.990806367E0,-2.308088274E1,-5.824691593E0,2.399164653E1
7.470840958E0,-3.043823072E0,-1.200741405E1,-5.859131109E0,1.370300217E1
7.480784958E0,-3.124205330E0,-5.598425397E0,-6.221320510E0,8.933524207E0
7.490727958E0,-2.234215400E0,-4.052711016E0,-5.414134024E0,7.122431625E0
7.500671958E0,-8.632399419E-1,-5.785392457E0,-3.422118044E0,6.776934483E0
7.510615958E0,8.014741950E-1,-9.602704511E0,-4.391981086E-1,9.646097127E0
7.520558958E0,1.831523797E0,-1.514712795E1,1.398916232E0,1.532145330E1
7.530502958E0,3.093033239E0,-2.203563447E1,-7.499146168E-1,2.226428560E1
7.540446958E0,5.367013067E0,-2.783182265E1,-3.713882411E0,2.858685194E1
7.550389958E0,6.350608880E0,-2.843182415E1,-3.200243107E0,2.930768524E1
7.560333958E0,4.586739560E0,-2.140775110E1,-4.761964241E0,2.240549688E1
7.570277958E0,2.934228416E0,-1.069738982E1,-9.308481975E0,1.448073486E1
7.580220958E0,1.514366874E0,-2.180532551E0,-1.083286396E1,1.115342866E1
7.590164958E0,-6.243905380E0,2.701218919E0,-5.778279319E0,8.925886507E0
7.600107958E0,-1.986036500E1,1.652706149E0,5.334297895E-1,1.993615015E1
7.610051958E0,-2.857469034E1,-6.020117819E-2,4.354046105E0,2.890457178E1
7.619995958E0,-2.231945598E1,8.778015554E-1,4.225481913E0,2.273286934E1
7.629938958E0,-6.276409467E0,3.734120209E0,6.821442472E0,9.993450202E0
7.639882958E0,2.891117480E0,6.898377796E0,1.158882825E1,1.379300971E1
7.649826958E0,6.448325209E0,8.969912986E0,1.849377715E1,2.154205260E1
7.659769958E0,4.476751680E0,8.956203019E0,2.403305737E1,2.603541290E1
7.669713958E0,6.768815046E-1,1.138045454E1,1.992843127E1,2.295899142E1
7.679657958E0,-1.956001809E0,2.126977085E1,1.322594806E1,2.512279437E1
7.689600958E0,-3.551372500E0,3.353203930E1,1.026474498E1,3.524733884E1
7.699544958E0,1.017084279E0,2.983154935E1,1.494197488E0,2.988625810E1
7.709488958E0,4.402839073E0,1.220227368E1,-2.970521441E1,3.241419809E1
7.719431958E0,-2.437847608E0,1.634012600E0,-1.761668311E1,1.785946869E1
7.729375958E0,-1.408000758E-1,-4.471024332E0,5.782555972E0,7.310802747E0
7.739319958E0,6.250976418E0,-5.410999331E0,2.414383638E1,2.552015782E1
7.749262958E0,1.093040838E1,-1.450447159E0,3.077214181E1,3.268795399E1
7.759206958E0,1.430491489E1,3.847324935E0,2.363531106E1,2.789373456E1
7.769150958E0,1.076505731E1,1.119272617E1,1.708553490E1,2.308850538E1
7.779093958E0,2.375353591E0,1.614295438E1,1.936641561E1,2.532380964E1
7.789037958E0,-1.668883348E0,1.658599908E1,2.371096233E1,2.898431079E1
7.798981958E0,-7.134393932E-1,1.465457487E1,2.050787865E1,2.521584119E1
7.808924958E0,1.339373596E0,1.092218486E1,1.457652273E1,1.826370878E1
7.818868958E0,3.680721096E0,7.054772104E0,1.229737513E1,1.464728481E1
7.828812958E0,5.371438825E0,4.621852675E0,1.223594195E1,1.413973665E1
7.838755958E0,5.270209488E0,3.402240434E0,1.023304839E1,1.200273416E1
7.848699958E0,4.634409571E0,3.383208332E0,6.825654806E0,8.917029450E0
7.858643958E0,4.079451503E0,4.740800244E0,4.925016773E0,7.960709876E0
7.868586958E0,3.718503173E0,6.586694890E0,3.835988646E0,8.480956568E0
7.878530958E0,4.371064426E0,7.392518390E0,7.576874667E-1,8.621462907E0
7.888474958E0,5.313549051E0,7.112608668E0,-2.165322774E0,9.138469691E0
7.898417958E0,4.908268594E0,8.031440721E0,-2.320844092E0,9.694403434E0
7.908361958E0,3.637644659E0,1.152295118E1,-8.018433005E-1,1.211007082E1
7.918305958E0,5.358479056E-1,1.453994489E1,-1.637395799E-1,1.455073678E1
7.928248958E0,-2.322017629E0,1.531869461E1,-7.246176615E-1,1.551061705E1
7.938192958E0,-3.200955590E0,1.377387544E1,1.105764613E0,1.418409238E1
7.948135958E0,-3.603560069E0,9.129434384E0,4.566773950E0,1.082532409E1
7.958079958E0,-3.659372912E0,2.945402738E0,6.300936198E0,7.859275054E0
7.968023958E0,-3.777108938E0,-1.975956602E0,6.195700350E0,7.520482647E0
7.977967958E0,-3.890068374E0,-6.657490053E0,5.354612292E0,9.387581081E0
7.987910958E0,-1.594348744E0,-1.063603031E1,2.108115224E0,1.095952729E1
7.997854958E0,1.099918055E0,-9.534278639E0,-2.795932703E0,9.996475808E0
8.007797958E0,2.627640481E0,-5.066626981E0,-7.166575545E0,9.161605127E0
8.017741958E0,3.682828433E0,-1.584426457E0,-1.333013843E1,1.391999364E1
8.027685958E0,1.988081681E0,2.560593383E0,-1.415132607E1,1.451789023E1
8.037628958E0,-2.844899626E0,9.628939798E0,1.780779116E1,2.044327179E1
8.047572958E0,-8.438157254E0,1.400541465E1,3.717356592E1,4.061068998E1
8.057516958E0,-1.188032832E1,1.074324602E1,6.925912335E0,1.745072485E1
8.067459958E0,-6.234002536E0,3.938181603E0,-2.042066859E1,2.171118992E1
8.077403958E0,-6.560524799E-2,-9.744695372E0,-8.671286911E0,1.304433243E1
8.087347958E0,-2.996917292E-2,-2.745470998E1,-1.169406176E1,2.984146576E1
8.097290958E0,1.247728811E1,-6.272104747E1,-6.348245786E1,9.010901715E1
8.107234958E0,1.800482479E1,-6.754646921E1,-8.936394991E0,7.047381339E1
8.117178958E0,1.231115936E1,-4.019796571E1,4.523964087E1,6.175812658E1
8.127121958E0,-1.011058197E1,-2.046761706E1,-3.435635052E0,2.308572728E1
8.137065958E0,-1.876503299E1,-7.136092256E0,1.756295421E0,2.015278763E1
8.147009958E0,-8.848401412E0,-9.839577556E-1,1.134114254E1,1.441817930E1
8.156952958E0,-8.824375788E0,7.592340553E0,-8.349552056E0,1.432579012E1
8.166896958E0,-1.010024994E1,1.570019503E1,-8.453403284E0,2.049319887E1
8.176840958E0,-9.793610255E0,1.965345075E1,-8.331481821E0,2.348587911E1
8.186783958E0,-1.151379561E1,1.186561205E1,-1.739092679E1,2.399592826E1
8.196727083E0,-8.571858518E0,-4.537640491E0,-7.354403315E0,1.217186049E1
8.206671083E0,9.823249206E-3,-1.674721500E1,1.686740452E-1,1.674806728E1
8.216614083E0,7.434181556E0,-2.793724794E1,-3.827857507E0,2.916177929E1
8.226558083E0,5.701380832E0,-3.598284828E1,-3.797840534E0,3.662915105E1
8.236502083E0,3.352333864E0,-3.127405277E1,-5.820956976E0,3.198731091E1
8.246445083E0,9.327233557E-1,-2.045715054E1,-7.035186855E0,2.165314839E1
8.256389083E0,-3.087810506E0,-1.425950424E1,-5.124352448E0,1.546373250E1
8.266333083E0,-6.012230510E0,-1.166401760E1,-3.306002866E0,1.353240101E1
8.276276083E0,-6.484836393E0,-1.075880313E1,-2.310113282E0,1.277268848E1
8.286220083E0,-5.397043197E0,-1.152274185E1,-2.362769798E0,1.294157394E1
8.296164083E0,-3.557260939E0,-1.274438658E1,-2.699903880E0,1.350418364E1
8.306107083E0,-1.376676347E0,-1.282948345E1,-2.127238104E0,1.307730956E1
8.316051083E0,3.522868493E-1,-1.013664184E1,-1.769993109E0,1.029604241E1
8.325995083E0,2.137377469E0,-5.241614265E0,-2.650133550E0,6.250288824E0
8.335938083E0,3.692762852E0,7.214470088E-1,-3.184405339E0,4.929241385E0
8.345882083E0,3.299970001E0,7.011941249E0,-3.613589798E0,8.550739928E0
8.355826083E0,9.578632401E-1,1.118912194E1,-4.603605854E0,1.213701523E1
8.365769083E0,-1.135842690E0,1.226798703E1,-3.305892938E0,1.275627581E1
8.375713083E0,-2.280544351E0,1.148451392E1,-1.748898693E0,1.183864812E1
8.385657083E0,-4.394266763E0,1.013685117E1,-2.996175281E0,1.144737517E1
8.395600083E0,-6.826764023E0,8.774242346E0,-3.029054174E0,1.152246523E1
8.405544083E0,-6.563410107E0,6.570265968E0,-2.132549715E0,9.528615608E0
8.415488083E0,-3.227596090E0,5.719553978E0,-1.555728908E0,6.749145624E0
8.425431083E0,4.411326599E-1,6.249802297E0,-1.117597039E0,6.364247789E0
8.435375083E0,3.588188909E0,7.495096094E0,-1.186797667E-1,8.310574588E0
8.445319083E0,5.428716395E0,9.655393186E0,4.365624762E0,1.190614374E1
8.455262083E0,5.820062937E0,1.184518305E1,1.055294137E1,1.689810835E1
8.465206083E0,5.748405894E0,1.344114665E1,1.288072962E1,1.948388537E1
8.475150083E0,6.070745351E0,1.437258471E1,9.110752530E0,1.806740026E1
8.485093083E0,7.883116740E0,1.415882220E1,1.851617900E0,1.631086339E1
8.495037083E0,8.885530647E0,1.186162191E1,-3.148895490E0,1.515144455E1
8.504981083E0,6.835634834E0,8.334428818E0,-2.875401042E0,1.115600907E1
8.514924083E0,4.900978285E0,6.508828688E0,-8.687702385E-1,8.193851400E0
8.524868083E0,3.032432988E0,6.860218867E0,9.198091221E-1,7.556738817E0
8.534812083E0,1.292876245E0,8.019289037E0,2.163992240E0,8.406151798E0
8.544755083E0,1.482522060E-1,9.260509663E0,2.987041053E0,9.731466086E0
8.554699083E0,-1.192962094E-1,1.038614136E1,3.454856604E0,1.094633263E1
8.564643083E0,-2.716309413E-2,1.123968399E1,3.591049074E0,1.179944352E1
8.574586083E0,-1.677427299E-1,1.191734705E1,3.825099961E0,1.251729555E1
8.584530083E0,-6.586378263E-1,1.251160074E1,3.999520065E0,1.315181043E1
8.594474083E0,-1.131933973E0,1.280421412E1,3.662338035E0,1.336569840E1
8.604417083E0,-1.168618965E0,1.246435056E1,2.538049735E0,1.277369961E1
8.614361083E0,-7.577886236E-1,1.168062486E1,1.193089271E0,1.176582775E1
8.624305083E0,-1.716320054E-1,1.088331607E1,3.965498333E-1,1.089189047E1
8.634248083E0,3.410281818E-1,1.027237910E1,2.718372019E-1,1.028163256E1
8.644192083E0,4.891964802E-1,9.867418488E0,5.156402206E-1,9.892984669E0
8.654136083E0,5.489788516E-1,9.484767340E0,7.996919636E-1,9.534238119E0
8.664079083E0,6.506264099E-1,9.060086406E0,1.108647290E0,9.150823965E0
8.674023083E0,8.523166122E-1,8.671403271E0,1.088742053E0,8.780947418E0
8.683967083E0,1.165553709E0,8.443836070E0,5.573122302E-1,8.542100441E0
8.693910083E0,1.443111388E0,8.283082663E0,1.501107435E-1,8.409195093E0
8.703854083E0,1.506111044E0,8.193167689E0,1.777435152E-1,8.332344209E0
8.713798083E0,1.486695364E0,8.080992950E0,5.238755123E-1,8.233295556E0
8.723741083E0,1.694351919E0,7.928068964E0,1.037614291E0,8.173233714E0
8.733685083E0,2.093465610E0,7.733566014E0,1.471875304E0,8.145984192E0
8.743629083E0,2.395271692E0,7.418971193E0,1.613873766E0,7.961347159E0
8.753572083E0,2.525470328E0,6.826891492E0,1.248920825E0,7.385407981E0
8.763516083E0,2.563645629E0,5.594145820E0,5.583574931E-1,6.178876068E0
8.773460083E0,2.411518766E0,3.546136318E0,-8.603173573E-1,4.373860023E0
8.783404083E0,2.109489612E0,5.977082312E-1,-2.952979560E0,3.677946415E0
8.793347083E0,1.082888405E0,-4.732982517E0,-1.513423601E1,1.589398850E1
8.803291083E0,-5.581230198E-1,-1.701103436E1,-3.404601189E1,3.806333823E1
8.813234083E0,-4.614122071E0,-2.845801500E1,-1.828741604E1,3.414056716E1
8.823178083E0,-6.892004331E0,-2.891026205E1,1.398908923E1,3.284809877E1
8.833122083E0,-1.520313638E0,-2.373238653E1,7.309765670E0,2.487911168E1
8.843066083E0,-2.257832158E-1,-1.738361894E1,-2.136473197E1,2.754438160E1
8.853009083E0,2.757175311E0,-1.730188305E1,-1.705673152E1,2.445177423E1
8.862953083E0,5.360320344E0,-1.690229369E1,7.695412347E0,1.932976816E1
8.872897083E0,3.058508354E0,-1.360217780E1,7.681598300E-1,1.396294323E1
8.882840083E0,-1.097809330E0,-1.132005046E1,-1.177620345E1,1.637155140E1
8.892784083E0,-2.705675375E0,-8.594078522E0,-4.381086554E0,1.001862187E1
8.902728083E0,-1.504469730E0,-5.156158962E0,-1.571205318E-2,5.371187139E0
8.912671083E0,4.137578235E-1,-2.573482985E0,-5.708948883E0,6.275835208E0
8.922615083E0,-6.378850347E-1,-2.991672340E0,-7.978395950E0,8.544694414E0
8.932559083E0,-3.794336590E0,-5.202634971E0,-7.139660811E0,9.614528449E0
8.942502083E0,-8.743011197E0,-8.046659269E0,-9.252322977E0,1.505969623E1
8.952446083E0,-1.185866907E1,-1.224917186E1,-9.563987757E0,1.954840416E1
8.962390083E0,-1.116309131E1,-1.537882036E1,-6.321631833E0,2.002712541E1
8.972333083E0,-8.153963862E0,-1.645342633E1,-4.278397753E0,1.885489464E1
8.982277083E0,-4.237574832E0,-1.619954257E1,-3.332241369E0,1.707296261E1
8.992221083E0,-1.408047536E0,-1.555757091E1,-1.924926782E0,1.573931236E1
9.002164083E0,2.691761340E-1,-1.520953996E1,-1.087863070E0,1.525077072E1
9.012108083E0,1.165883199E0,-1.496574381E1,-1.492235016E0,1.508507662E1
9.022052083E0,1.664793074E0,-1.370481865E1,-2.415040251E0,1.401520637E1
9.031995083E0,1.788952705E0,-1.115019352E1,-3.212514951E0,1.174084408E1
9.041939083E0,1.570463160E0,-7.525624407E0,-3.583133991E0,8.481758453E0
9.051883083E0,1.185648835E0,-3.480301348E0,-3.321743571E0,4.955021794E0
9.061826083E0,1.160312265E0,3.496243197E-1,-2.861745454E0,3.107756226E0
9.071770083E0,1.775484083E0,4.177378331E0,-2.865596430E0,5.367911731E0
9.081714083E0,2.488574397E0,7.928153749E0,-3.424209008E0,8.987426313E0
9.091657083E0,3.120992285E0,1.124052482E1,-3.515409200E0,1.218392765E1
9.101601083E0,3.232144054E0,1.398421733E1,-2.118728067E0,1.450841473E1
9.111545083E0,2.330912559E0,1.610638940E1,-6.449882323E-1,1.628695622E1
9.121489083E0,1.097759775E0,1.655057431E1,1.679231458E0,1.667172471E1
9.131432083E0,-8.711661351E-1,1.453102555E1,2.786122245E0,1.482133972E1
9.141376083E0,-2.060960938E0,1.056551640E1,3.491226286E-1,1.077031027E1
9.151320083E0,-1.892604835E0,7.522667470E0,-3.335696197E-1,7.764260919E0
9.161263083E0,-1.122871373E0,5.581871345E0,-1.366704798E-1,5.695332006E0
9.171207083E0,-6.634761049E-1,4.387044867E0,8.566523591E-2,4.437758639E0
9.181151083E0,-1.009562128E0,4.618127999E0,1.043641455E0,4.841023589E0
9.191094083E0,-5.927076924E-1,5.367991891E0,1.499330174E0,5.604875585E0
9.201037833E0,1.869838701E-1,6.517138166E0,1.580781888E0,6.708720014E0
9.210981833E0,9.146238112E-1,7.953622466E0,1.440476779E0,8.134594053E0
9.220924833E0,2.021070941E0,9.480701187E0,1.755915352E0,9.851480166E0
9.230868833E0,3.206908348E0,1.094218935E1,2.134031399E0,1.160042495E1
9.240812833E0,4.060532836E0,1.203423873E1,1.863300491E0,1.283677208E1
9.250755833E0,4.655243200E0,1.256702065E1,1.006713949E0,1.343929947E1
9.260699833E0,5.064269968E0,1.238499215E1,5.683458531E-1,1.339245601E1
9.270643833E0,4.747231012E0,1.114754590E1,8.743690936E-1,1.214777771E1
9.280586833E0,3.850995817E0,9.595118333E0,1.324165134E0,1.042352522E1
9.290530833E0,2.833394937E0,8.767819179E0,1.288646808E0,9.303944896E0
9.300474833E0,2.014400437E0,8.314457653E0,8.535179226E-1,8.597471025E0
9.310417833E0,1.442298040E0,7.957995599E0,2.642053429E-1,8.091954155E0
9.320361833E0,1.022772377E0,7.588688382E0,-3.374555330E-1,7.664732933E0
9.330305833E0,7.376256698E-1,7.057964684E0,-6.739676178E-1,7.128337075E0
9.340248833E0,7.097081387E-1,6.469622523E0,-1.150560132E0,6.609348670E0
9.350192833E0,8.148498470E-1,6.068870734E0,-1.750125439E0,6.368525050E0
9.360136833E0,1.071003501E0,5.842236748E0,-2.186998987E0,6.329434674E0
9.370079833E0,1.464186800E0,5.766156871E0,-2.176168921E0,6.334675936E0
9.380023833E0,1.523389420E0,5.928541067E0,-1.884744716E0,6.404730841E0
9.389967833E0,1.112531596E0,7.006677586E0,-1.374654672E0,7.226405248E0
9.399911833E0,8.269155765E-1,8.961194787E0,-1.304957031E0,9.093388490E0
9.409854833E0,8.400616521E-1,1.074245548E1,-2.187929572E0,1.099513934E1
9.419798833E0,1.115671843E0,1.154295334E1,-2.925429819E0,1.196004327E1
9.429742833E0,4.452862296E-1,1.024963811E1,-7.396549460E-1,1.028593460E1
9.439685833E0,-2.841410885E0,6.740179038E0,2.845061009E0,7.848439426E0
9.449629833E0,-5.617113683E0,1.407825342E0,2.743779340E0,6.407984347E0
9.459573833E0,-4.854673015E0,-5.343178647E0,-1.738051816E0,7.425512255E0
9.469516833E0,-2.692599539E0,-1.373545338E1,-1.124361916E1,1.795359975E1
9.479460833E0,-1.438791173E0,-2.358324979E1,-1.867868716E1,3.011865111E1
9.489404833E0,1.030394588E0,-3.032997303E1,-7.116400588E0,3.117069351E1
9.499347833E0,7.711988618E0,-2.874147632E1,5.119385823E0,3.019528673E1
9.509291833E0,6.461691944E0,-1.973736531E1,-6.117988515E-1,2.077718340E1
9.519235833E0,-2.860880359E0,-1.138660815E1,-3.798111260E0,1.233957579E1
9.529178833E0,-8.467045423E0,-8.618542103E0,-2.370075309E0,1.231208281E1
9.539122833E0,-8.204368030E0,-8.837491677E0,-5.647297010E0,1.331558776E1
9.549066833E0,-6.022600547E0,-9.960612581E0,-9.114683028E0,1.478387524E1
9.559009833E0,-6.195527272E0,-1.232063653E1,-9.444883482E0,1.671491749E1
9.568953833E0,-7.807688243E0,-1.555987238E1,-6.547760035E0,1.859953724E1
9.578897833E0,-7.490358095E0,-1.885352008E1,-5.140757396E0,2.092816452E1
9.588841833E0,-5.839614857E0,-2.127313650E1,-3.949034328E0,2.241076327E1
9.598784833E0,-3.922330971E0,-2.023027390E1,-3.036886812E0,2.082957858E1
9.608728833E0,-3.182021429E0,-1.646657672E1,-3.870895354E0,1.721212480E1
9.618672833E0,-3.102804521E0,-1.295236386E1,-4.814322841E0,1.416223252E1
9.628615833E0,-2.321030034E0,-1.023642574E1,-4.751083742E0,1.152147513E1
9.638559833E0,-7.833210754E-1,-7.547022877E0,-4.034853327E0,8.593671368E0
9.648503833E0,1.115654886E0,-4.569189727E0,-3.215857512E0,5.697711832E0
9.658446833E0,2.713292835E0,-1.450383132E0,-2.497500172E0,3.962710732E0
9.668390833E0,3.700654839E0,1.633566458E0,-1.779342660E0,4.419213269E0
9.678334833E0,4.338024734E0,4.313461751E0,-7.623507674E-1,6.164867360E0
9.688277833E0,4.838150538E0,6.665697205E0,4.560651331E-1,8.249073600E0
9.698221833E0,4.948476387E0,8.737676783E0,1.253685282E0,1.011959193E1
9.708165833E0,4.413275476E0,1.069855926E1,1.344267862E0,1.165088953E1
9.718108833E0,3.016490262E0,1.257558565E1,1.631936839E0,1.303486808E1
9.728052833E0,8.561433224E-1,1.380270806E1,2.519794436E0,1.405692339E1
9.737996833E0,-6.991100603E-1,1.326778606E1,2.908647140E0,1.360085034E1
9.747940833E0,-2.687738456E-1,1.118128901E1,2.092581657E0,1.137859224E1
9.757883833E0,4.290732162E-1,9.336577261E0,1.295316142E0,9.435762962E0
9.767827833E0,4.781250697E-1,8.038770790E0,5.659484947E-1,8.072839469E0
9.777771833E0,-7.103943095E-2,7.121175424E0,4.814598099E-1,7.137786041E0
9.787714833E0,-7.271012664E-1,6.832593112E0,1.018981408E0,6.946317585E0
9.797658833E0,-1.003110018E0,7.059690782E0,1.547772017E0,7.296647303E0
9.807602833E0,-9.748284978E-1,7.696250253E0,2.318953103E0,8.096919294E0
9.817545833E0,-5.203845052E-1,8.516722198E0,3.123589618E0,9.086372716E0
9.827489833E0,9.422612607E-2,9.277437937E0,3.338418660E0,9.860262288E0
9.837433833E0,8.868923678E-1,9.849292120E0,2.922273492E0,1.031187741E1
9.847376833E0,2.012383586E0,9.982918539E0,1.865747112E0,1.035322957E1
9.857320833E0,3.107711796E0,9.581376207E0,3.708315861E-1,1.007959120E1
9.867264833E0,3.879301895E0,8.840007150E0,-5.491471052E-1,9.669347038E0
9.877207833E0,4.337376278E0,8.275695291E0,-1.031159842E0,9.400173197E0
9.887151833E0,4.019818674E0,8.198215005E0,-1.204472776E0,9.209800547E0
9.897095833E0,3.169873838E0,8.515795414E0,-9.226181245E-1,9.133350748E0
9.907038833E0,2.505902036E0,8.870886880E0,-4.321571839E-1,9.228160103E0
9.916982833E0,2.115088467E0,9.066982613E0,2.345224643E-1,9.313365327E0
9.926926833E0,1.886673566E0,9.133014050E0,8.872376458E-1,9.367959939E0
9.936870833E0,1.746908447E0,9.090654480E0,1.317769596E0,9.350305060E0
9.946813833E0,1.502751818E0,9.003405837E0,1.451664549E0,9.242667886E0
9.956757833E0,1.110070283E0,8.866277520E0,1.299853727E0,9.029548871E0
9.966701833E0,6.910056733E-1,8.702840241E0,9.231809190E-1,8.778905405E0
9.976644833E0,1.779511645E-1,8.532703223E0,3.749591357E-1,8.542791421E0
9.986588833E0,-7.405722280E-1,8.547407216E0,4.591090474E-1,8.591705212E0
9.996532833E0,-1.985120797E0,8.894709021E0,2.672654394E0,9.497348823E0
1.000647583E1,-2.760288661E0,8.686363957E0,5.710656270E0,1.075563607E1
1.001641983E1,-3.173897308E0,6.613942330E0,5.135308961E0,8.954845358E0
1.002636383E1,-2.939930036E0,2.707550869E0,-2.498129332E0,4.713244157E0
1.003630683E1,-3.565041536E0,-2.519613757E0,-7.018932180E0,8.265796005E0
1.004625083E1,-4.485974785E0,-8.860203432E0,-5.191910593E0,1.120638703E1
1.005619483E1,-5.148231307E0,-1.730506744E1,-9.761921854E0,2.052473540E1
1.006613883E1,-5.933674337E0,-2.561469179E1,-1.209900717E1,2.894316674E1
1.007608183E1,-2.413003812E0,-2.905541333E1,-1.084797433E1,3.110816900E1
1.008602583E1,3.766209728E0,-2.560479830E1,-5.182436349E0,2.639408415E1
1.009596983E1,8.516035734E0,-2.038918952E1,5.086381799E-1,2.210205029E1
1.010591283E1,9.091373688E0,-1.646291402E1,-2.611717343E0,1.898688182E1
1.011585683E1,4.781182870E0,-1.311367450E1,-4.171165665E0,1.456800575E1
1.012580083E1,-2.286931411E0,-1.109888537E1,-3.381926622E0,1.182593504E1
1.013574383E1,-7.630894754E0,-1.089976078E1,-5.148204995E0,1.426672193E1
1.014568783E1,-1.024443175E1,-1.199264983E1,-6.479201431E0,1.705145398E1
1.015563183E1,-1.046468467E1,-1.369264943E1,-5.444995043E0,1.807335731E1
1.016557483E1,-8.923120642E0,-1.529254820E1,-5.107362778E0,1.842740533E1
1.017551883E1,-6.353769885E0,-1.553890309E1,-4.837545058E0,1.747082549E1
1.018546283E1,-3.603104279E0,-1.502484162E1,-3.507455817E0,1.584394119E1
1.019540683E1,-1.095542365E0,-1.401815457E1,-1.662838496E0,1.415888069E1
1.020535054E1,7.805722994E-1,-1.191079700E1,-3.685827470E-1,1.194203632E1
1.021529454E1,1.617122772E0,-9.309043307E0,-3.899908653E-1,9.456503912E0
1.022523854E1,1.430747012E0,-6.176625563E0,-1.163187779E0,6.445986826E0
1.023518154E1,2.181999618E-1,-2.215890080E0,-1.735926061E0,2.823334794E0
1.024512554E1,-9.770755827E-1,1.473282582E0,-1.577920260E0,2.369614021E0
1.025506954E1,-1.429457847E0,4.098043309E0,-9.986694963E-1,4.453610835E0
1.026501254E1,-1.210483129E0,6.211096653E0,-3.958575960E-1,6.340322884E0
1.027495654E1,-5.038497488E-1,8.158950368E0,2.392798320E-1,8.177994284E0
1.028490054E1,1.756996210E-1,9.834261267E0,6.641946546E-1,9.858231057E0
1.029484354E1,-1.605499238E-2,1.180549098E1,9.058459711E-1,1.184020405E1
1.030478754E1,-6.389537595E-1,1.332876784E1,1.565653971E0,1.343560890E1
1.031473154E1,-1.328788089E0,1.340163701E1,2.095530993E0,1.362940947E1
1.032467454E1,-1.339650023E0,1.240249638E1,1.984231582E0,1.263145888E1
1.033461854E1,-6.662102629E-1,1.058122903E1,1.235935328E0,1.067397677E1
1.034456254E1,-2.431017914E-1,8.749684625E0,4.673223388E-1,8.765527348E0
1.035450654E1,-4.012916328E-1,7.495850970E0,4.498402604E-1,7.520051396E0
1.036444954E1,-8.169450505E-1,6.567922404E0,1.095436165E0,6.708575431E0
1.037439354E1,-1.100815237E0,6.288735398E0,1.658684342E0,6.596303574E0
1.038433754E1,-1.093365739E0,6.833946742E0,1.140601228E0,7.014217553E0
1.039428054E1,-5.941839682E-1,7.717140600E0,2.028984562E-1,7.742640468E0
1.040422454E1,4.291522998E-1,8.861348317E0,1.645490538E-1,8.873259947E0
1.041416854E1,1.440679531E0,9.961332958E0,1.352318455E0,1.015541614E1
1.042411154E1,2.143261960E0,1.075921360E1,2.765368137E0,1.131377523E1
1.043405554E1,2.788639763E0,1.115274057E1,3.553165841E0,1.203266892E1
1.044399954E1,3.560325172E0,1.107031705E1,3.424348172E0,1.212245830E1
1.045394354E1,4.025956496E0,1.061927102E1,2.412888768E0,1.161030899E1
1.046388654E1,4.082829731E0,9.940135632E0,1.201946925E0,1.081297699E1
1.047383054E1,3.873054146E0,9.028817836E0,3.759503849E-1,9.831654928E0
1.048377454E1,3.251961730E0,7.912196698E0,3.415475607E-2,8.554488776E0
1.049371754E1,2.604192562E0,7.044961646E0,-8.327005193E-2,7.511340585E0
1.050366154E1,2.048637346E0,6.749470264E0,-5.030461952E-2,7.053707846E0
1.051360554E1,1.608267602E0,6.972429274E0,1.199275625E-1,7.156512928E0
1.052354854E1,1.525838526E0,7.429447065E0,1.149916354E-1,7.585386607E0
1.053349254E1,1.511468701E0,7.857823439E0,-1.299461818E-1,8.002925268E0
1.054343654E1,1.009133089E0,8.268570458E0,-6.263768372E-1,8.353439708E0
1.055337954E1,1.032267451E-1,9.162775208E0,-1.009685504E0,9.218816089E0
1.056332354E1,-4.579154845E-1,1.026573550E1,-1.429443375E0,1.037488893E1
1.057326754E1,-8.718039932E-1,1.055487095E1,-2.301084889E0,1.083791192E1
1.058321054E1,-2.423789002E0,8.882885951E0,-2.786181886E0,9.619938953E0
1.059315454E1,-5.340504130E0,5.553795939E0,-2.246065221E0,8.025611670E0
1.060309854E1,-8.140322308E0,1.171290851E0,-2.742697020E0,8.669438072E0
1.061304254E1,-8.559266539E0,-7.099484593E0,-9.295706978E0,1.449392609E1
1.062298554E1,-5.656540874E0,-2.231154353E1,-2.371185579E1,3.304623328E1
1.063292954E1,-2.357794548E0,-3.387406633E1,-2.244787487E1,4.070526564E1
1.064287354E1,6.404907294E0,-3.068960252E1,-7.810270373E0,3.230905235E1
1.065281654E1,1.568170730E1,-2.082749213E1,5.620102780E0,2.666994427E1
1.066276054E1,1.249262302E1,-1.204454153E1,6.430837941E0,1.850654714E1
1.067270454E1,1.572952027E0,-5.593353522E0,2.287204476E0,6.244284268E0
1.068264754E1,-6.541795875E0,-2.610172509E0,5.053317549E0,8.668570357E0
1.069259154E1,-8.072158976E0,-3.334162472E0,3.960367693E0,9.589624716E0
1.070253554E1,-6.201987276E0,-6.620996411E0,-4.954263961E0,1.033668085E1
1.071247954E1,-7.017638776E0,-1.084088985E1,-7.298134389E0,1.483357382E1
1.072242254E1,-9.813869687E0,-1.497710261E1,-4.647126972E0,1.849922782E1
1.073236654E1,-1.054526164E1,-1.791200609E1,-5.148278085E0,2.141371692E1
1.074231054E1,-8.898049536E0,-1.887634527E1,-5.789179698E0,2.165655323E1
1.075225354E1,-5.591452593E0,-1.684798475E1,-4.294324399E0,1.826362927E1
1.076219754E1,-2.764180275E0,-1.451008316E1,-4.792927295E0,1.552917763E1
1.077214154E1,-1.042729582E0,-1.350356684E1,-5.074110832E0,1.446306341E1
1.078208454E1,-3.308095146E-1,-1.265449734E1,-3.856661184E0,1.323327523E1
1.079202854E1,-5.979057940E-1,-1.059423207E1,-2.937820946E0,1.101026959E1
1.080197254E1,-9.491826830E-1,-7.651142492E0,-2.198411875E0,8.017103216E0
1.081191554E1,-1.042474716E0,-4.689440056E0,-9.017114049E-1,4.887809840E0
1.082185954E1,-1.080680497E0,-1.900486005E0,7.251838182E-1,2.303390753E0
1.083180354E1,-1.180877141E0,1.072803859E0,1.693526438E0,2.326673750E0
1.084174754E1,-1.044219964E0,4.080012251E0,1.748297746E0,4.559982490E0
1.085169054E1,-4.292905864E-1,6.653525641E0,1.290540136E0,6.791110933E0
1.086163454E1,2.277438603E-1,8.636545095E0,6.942891772E-1,8.667399604E0
1.087157854E1,4.752343525E-1,1.026921693E1,3.696128802E-1,1.028684975E1
1.088152154E1,9.257092550E-2,1.149926996E1,5.254938023E-1,1.151164292E1
1.089146554E1,-5.012152858E-1,1.201954819E1,1.409517965E0,1.211228700E1
1.090140954E1,-8.728124186E-1,1.200036348E1,2.201116505E0,1.223173900E1
1.091135254E1,-2.225551142E-1,1.137218657E1,3.178261085E0,1.181005935E1
1.092129654E1,-7.600254759E-2,1.009480852E1,3.015159144E0,1.053575437E1
1.093124054E1,4.240737737E-1,8.560730097E0,3.129966592E0,9.124835846E0
1.094118354E1,6.958307956E-1,7.673213977E0,2.774835949E0,8.189145730E0
1.095112754E1,6.138610183E-1,7.213210014E0,2.358100504E0,7.613662853E0
1.096107154E1,9.554980414E-1,6.886760548E0,2.305366513E0,7.324968404E0
1.097101554E1,7.422668973E-1,7.054843440E0,1.614033834E0,7.275086345E0
1.098095854E1,6.554018310E-1,7.852335827E0,1.322543117E0,7.989859185E0
1.099090254E1,7.932266973E-1,8.562001866E0,7.852015400E-1,8.634444163E0
1.100084654E1,9.636310798E-1,9.199343694E0,9.264328480E-2,9.250140109E0
1.101078954E1,1.259067059E0,9.606274821E0,1.430787358E-1,9.689491076E0
1.102073354E1,1.272766939E0,1.002613648E1,5.966519317E-1,1.012419586E1
1.103067754E1,1.545221169E0,1.021961617E1,1.393607983E0,1.042930517E1
1.104062054E1,2.111081370E0,9.696958703E0,2.374902917E0,1.020430480E1
1.105056454E1,2.766016301E0,8.833174093E0,3.277265848E0,9.819179303E0
1.106050854E1,3.352808658E0,7.994176415E0,3.898804114E0,9.505201522E0
1.107045254E1,3.914835425E0,7.312174723E0,4.106631992E0,9.255174872E0
1.108039554E1,4.532491432E0,6.713492931E0,4.041163934E0,9.052373825E0
1.109033954E1,5.009495591E0,6.112884480E0,3.797936428E0,8.768507504E0
1.110028354E1,4.992732208E0,5.761870862E0,3.544272518E0,8.407639290E0
1.111022654E1,4.527349976E0,6.091195988E0,3.510424741E0,8.361976335E0
1.112017054E1,3.739689389E0,7.079002381E0,3.603684615E0,8.779754794E0
1.113011454E1,2.944328020E0,8.267729044E0,3.459843987E0,9.433712495E0
1.114005754E1,2.049102054E0,9.202032244E0,2.740304047E0,9.817610856E0
1.115000154E1,5.219439577E-1,9.363084444E0,2.212978166E0,9.635198398E0
1.115994554E1,-1.169414114E0,8.253022712E0,1.523484437E0,8.473542239E0
1.116988954E1,-1.106820620E0,6.117586811E0,-6.572852191E-1,6.251555337E0
1.117983254E1,6.489258935E-1,3.411259764E0,-3.808910190E0,5.154182266E0
1.118977654E1,1.224696980E0,4.305842829E-1,-5.496868617E0,5.648083755E0
1.119972104E1,-1.954678000E0,-2.760055942E0,-3.090652837E0,4.581572857E0
1.120966404E1,-5.582187679E0,-7.636874701E0,1.555898477E0,9.586631033E0
1.121960804E1,-7.296470856E0,-1.657296447E1,-5.339746331E0,1.887894407E1
1.122955204E1,-9.630456566E0,-2.710799582E1,-1.602542886E1,3.293028243E1
1.123949504E1,-8.177231687E0,-3.271252396E1,-1.042663099E1,3.529434764E1
1.124943904E1,-1.392745738E-1,-2.732224716E1,-3.802539064E0,2.758593646E1
1.125938304E1,4.025001646E0,-1.779024718E1,-6.019379316E0,1.920745845E1
1.126932604E1,5.103592494E0,-1.094703552E1,-9.154929999E0,1.515575753E1
1.127927004E1,5.657264174E0,-5.340878352E0,-8.019219455E0,1.117307031E1
1.128921404E1,5.793066342E0,-2.963930225E-1,-4.524316440E0,7.356419355E0
1.129915804E1,2.891165135E0,3.350503101E0,-4.151945867E0,6.068225552E0
1.130910104E1,-2.993815345E0,3.050080177E0,-6.813670937E0,8.043135648E0
1.131904504E1,-6.819185447E0,-6.796376628E-1,-5.913325442E0,9.051553198E0
1.132898904E1,-9.102678110E0,-5.195636439E0,-4.162346894E0,1.127734536E1
1.133893204E1,-9.585997261E0,-9.424172060E0,-5.518930746E0,1.453151606E1
1.134887604E1,-6.536090162E0,-1.276416538E1,-7.998146090E0,1.641994924E1
1.135882004E1,-1.434389096E0,-1.448245974E1,-8.958369997E0,1.708951448E1
1.136876304E1,2.258361915E0,-1.434758670E1,-8.339726980E0,1.674826823E1
1.137870704E1,3.081351964E0,-1.282770824E1,-6.631506196E0,1.476555800E1
1.138865104E1,2.257491850E0,-1.058361938E1,-4.963800770E0,1.190582154E1
1.139859504E1,6.373535228E-1,-8.314105065E0,-3.960979020E0,9.231463446E0
1.140853804E1,-1.180434434E0,-6.295055653E0,-3.958312105E0,7.529235409E0
1.141848204E1,-2.626436539E0,-4.942785292E0,-4.554903518E0,7.216400862E0
1.142842604E1,-3.628618604E0,-4.247137953E0,-4.944272239E0,7.459951859E0
1.143836904E1,-4.358192950E0,-3.500265496E0,-4.802633965E0,7.369599537E0
1.144831304E1,-4.855268554E0,-2.031192325E0,-4.059897244E0,6.646964768E0
1.145825704E1,-5.277693924E0,2.455134755E-1,-2.497792240E0,5.844082143E0
1.146820004E1,-5.636294889E0,2.926327366E0,-5.405502364E-1,6.373649386E0
1.147814404E1,-5.266561995E0,5.580267454E0,1.094850347E0,7.750790759E0
1.148808804E1,-3.828746869E0,7.711677547E0,2.655961470E0,9.010183378E0
1.149803204E1,-2.331552683E0,9.346734459E0,4.880044376E0,1.079872289E1
1.150797504E1,-1.373196084E0,1.081190403E1,6.943805984E0,1.292282391E1
1.151791904E1,-6.436435188E-1,1.214709117E1,8.344415277E0,1.475111410E1
1.152786304E1,3.542099985E-1,1.279601165E1,8.562497710E0,1.540064109E1
1.153780604E1,1.719401829E0,1.167122254E1,6.847284826E0,1.364034778E1
1.154775004E1,2.946343262E0,9.118900625E0,5.052733412E0,1.083353138E1
1.155769404E1,3.865553337E0,7.091129506E0,4.453997240E0,9.223053274E0
1.156763704E1,3.852484810E0,5.796597476E0,4.255798849E0,8.158063824E0
1.157758104E1,2.771648047E0,5.278390328E0,3.592221733E0,6.960423430E0
1.158752504E1,1.633863935E0,5.360368876E0,1.952095431E0,5.934116818E0
1.159746904E1,1.096721163E0,5.922566966E0,5.865448733E-1,6.051746167E0
1.160741204E1,1.064244266E0,7.088970129E0,1.603284605E-1,7.170203524E0
1.161735604E1,1.067216405E0,8.596762978E0,5.622860911E-1,8.680982099E0
1.162730004E1,1.125331443E0,9.724243566E0,1.402826557E0,9.889145875E0
1.163724304E1,1.423569262E0,1.033686220E1,2.289906182E0,1.068274028E1
1.164718704E1,1.789007231E0,1.062218410E1,2.791633538E0,1.112764844E1
1.165713104E1,2.173609302E0,1.070018011E1,2.889034994E0,1.129446568E1
1.166707404E1,2.691153814E0,1.066738074E1,2.786393555E0,1.134897836E1
1.167701804E1,3.351440117E0,1.073278185E1,1.980158411E0,1.141690783E1
1.168696204E1,3.947802027E0,1.086014941E1,6.947360507E-1,1.157629665E1
1.169690604E1,4.703723927E0,1.083835566E1,-4.999039015E-1,1.182560257E1
1.170684904E1,5.363735703E0,1.054491899E1,-1.164778514E0,1.188787981E1
1.171679304E1,5.820943528E0,9.997445362E0,-1.264857996E0,1.163753252E1
1.172673704E1,6.070822535E0,9.113774371E0,-1.200676033E0,1.101623313E1
1.173668004E1,6.190042584E0,8.264290296E0,-1.127403112E0,1.038682623E1
1.174662404E1,6.197664430E0,6.967908792E0,-2.397280065E0,9.628590189E0
1.175656804E1,6.508291329E0,4.531223756E0,-5.172127123E0,9.467879580E0
1.176651104E1,6.892417145E0,1.605833114E0,-4.138555743E0,8.198277729E0
1.177645504E1,6.239838642E0,-7.314545184E-1,1.781108665E-1,6.285088342E0
1.178639904E1,2.552772147E0,-1.616581466E0,3.321651185E0,4.490361663E0
1.179634304E1,-2.788842954E0,-1.484276517E0,4.659288889E0,5.629360066E0
1.180628604E1,-7.694137069E0,-2.950652368E0,-1.658077401E-1,8.242183378E0
1.181623004E1,-8.924239215E0,-9.601602895E0,-1.027609793E1,1.665626046E1
1.182617404E1,-6.014001047E0,-1.951917295E1,-7.194887763E0,2.165485468E1
1.183611704E1,-3.531086170E0,-2.629638358E1,2.514113573E0,2.665124999E1
1.184606104E1,2.465538706E0,-2.682330892E1,-3.087342436E0,2.711273623E1
1.185600504E1,4.989758899E0,-2.031175602E1,-7.169867527E0,2.211045288E1
1.186594804E1,2.815981344E0,-1.381533804E1,-2.333688963E0,1.429123579E1
1.187589204E1,9.479516979E-1,-1.122064312E1,-3.571135212E0,1.181331668E1
1.188583604E1,5.119959435E-1,-1.185577002E1,-8.343581464E0,1.450643906E1
1.189578004E1,-4.122272417E-1,-1.540859438E1,-9.442238202E0,1.807624337E1
1.190572304E1,-2.833941359E0,-1.943750021E1,-6.725322433E0,2.076240834E1
1.191566704E1,-5.025537427E0,-2.164421016E1,-5.260625317E0,2.283422954E1
1.192561104E1,-6.319247923E0,-2.071861230E1,-4.623401310E0,2.214880650E1
1.193555404E1,-5.910127600E0,-1.675755639E1,-3.564787767E0,1.812327278E1
1.194549804E1,-4.847167529E0,-1.190767107E1,-3.718312261E0,1.338332954E1
1.195544204E1,-3.806578905E0,-7.480652302E0,-4.237134537E0,9.402314125E0
1.196538604E1,-2.900285037E0,-3.646497343E0,-3.881044073E0,6.063917815E0
1.197532904E1,-2.202853274E0,-8.304601586E-1,-2.892777797E0,3.729663524E0
1.198527304E1,-1.402464322E0,9.448796439E-1,-1.852077637E0,2.507966366E0
1.199521704E1,-5.694670567E-1,2.273803242E0,-6.620813978E-1,2.435739249E0
1.200516004E1,2.105827940E-1,3.881398122E0,7.255516081E-1,3.954240968E0
1.201510404E1,7.839879504E-1,6.096338614E0,2.564516280E0,6.660084486E0
1.202504804E1,9.920358302E-1,8.735021562E0,4.469170765E0,9.861958431E0
1.203499104E1,1.108444831E0,1.074996097E1,5.805127394E0,1.226742902E1
1.204493504E1,1.054815338E0,1.178928718E1,6.448312930E0,1.347889710E1
1.205487904E1,5.399687308E-1,1.207281632E1,6.145662217E0,1.355778833E1
1.206482304E1,-2.349995971E-3,1.149222991E1,5.070872644E0,1.256125405E1
1.207476604E1,-4.415871347E-1,1.032808202E1,3.489032410E0,1.091043650E1
1.208471004E1,-9.173977304E-1,9.231715050E0,2.514437217E0,9.611897621E0
1.209465404E1,-1.106844448E0,8.336153162E0,2.518761817E0,8.778423278E0
1.210459704E1,-9.921656384E-1,7.599557771E0,2.728237149E0,8.135167417E0
1.211454104E1,-6.323595621E-1,7.252528446E0,2.694296401E0,7.762620728E0
1.212448504E1,-6.124768361E-2,7.308208557E0,2.467412739E0,7.713740287E0
1.213442804E1,5.807549603E-1,7.679543003E0,2.583560661E0,8.123265523E0
1.214437204E1,1.083662284E0,8.145321677E0,2.864359159E0,8.702019453E0
1.215431604E1,1.510723473E0,8.531132661E0,2.940915585E0,9.149398579E0
1.216426004E1,1.862953312E0,8.852090421E0,2.523777559E0,9.391461709E0
1.217420304E1,2.310972823E0,9.163547040E0,1.463146434E0,9.563053238E0
1.218414704E1,2.733979699E0,9.431981016E0,2.488741627E-1,9.823382780E0
1.219409104E1,3.076625952E0,9.760532556E0,-5.853862475E-1,1.025067315E1
1.220403304E1,3.485604773E0,1.004459965E1,-1.469483939E0,1.073325700E1
1.221397704E1,3.986546263E0,1.006548590E1,-1.803981657E0,1.097546843E1
1.222392104E1,4.429492729E0,9.660097271E0,-1.645687151E0,1.075389099E1
1.223386504E1,4.471090990E0,9.023382849E0,-1.504824510E0,1.018217018E1
1.224380804E1,4.193509045E0,8.283239953E0,-1.215638181E0,9.363512077E0
1.225375204E1,3.608616449E0,7.607518755E0,-5.074780923E-1,8.435282349E0
1.226369604E1,2.604006620E0,7.095845870E0,6.712188417E-1,7.588307705E0
1.227363904E1,1.292192121E0,6.665640487E0,1.694091864E0,6.997890455E0
1.228358304E1,1.662487663E-1,6.311869322E0,2.215556204E0,6.691488794E0
1.229352704E1,-5.919390759E-1,6.062223035E0,2.309921494E0,6.514343965E0
1.230347004E1,-9.269687453E-1,6.092535585E0,2.122789543E0,6.518013221E0
1.231341404E1,-8.069830030E-1,6.409337729E0,2.890147719E0,7.076989864E0
1.232335804E1,-1.060402499E0,6.784074086E0,6.651661549E0,9.559953767E0
1.233330204E1,-1.650272245E0,6.275007305E0,9.779758201E0,1.173638725E1
1.234324504E1,-1.973635550E0,4.416458116E0,4.764404869E0,6.789690223E0
1.235318904E1,-4.544143179E0,2.276379526E0,-2.274001463E0,5.567964047E0
1.236313304E1,-3.114374114E0,-3.813774489E0,-1.400137072E1,1.484191982E1
1.237307604E1,2.920090141E0,-1.691771630E1,-3.234046562E1,3.661477527E1
1.238302004E1,2.797024671E0,-2.822531921E1,-1.271995458E1,3.108519319E1
1.239296404E1,5.145782493E0,-3.109642839E1,9.529569876E0,3.292840170E1
1.240290804E1,6.931340890E0,-2.869723161E1,-7.132720166E-1,2.953105731E1
1.241285104E1,3.488463184E0,-1.861971916E1,-4.412215376E0,1.945073164E1
1.242279504E1,3.187785614E0,-9.544175051E0,-1.234865288E0,1.013795575E1
1.243273904E1,2.254494859E0,-3.928237243E0,-4.999157129E0,6.745766592E0
1.244268204E1,-2.038746781E0,-2.370679327E0,-1.340457348E1,1.376441787E1
1.245262604E1,-6.752695588E0,-3.825585279E0,-1.360175446E1,1.566019555E1
1.246257004E1,-7.215609126E0,-8.013628348E0,-1.144436460E1,1.572439937E1
1.247251404E1,-4.419622629E0,-1.325070166E1,-8.156126162E0,1.617518324E1
1.248245704E1,-2.923832944E0,-1.681560988E1,-4.570156272E0,1.766917834E1
1.249240104E1,-4.535567945E0,-1.702980158E1,-3.748149433E0,1.801760646E1
1.250234504E1,-6.041602829E0,-1.394936558E1,-4.030674614E0,1.572679569E1
1.251228804E1,-5.168142246E0,-1.023919381E1,-3.914762335E0,1.211924702E1
1.252223204E1,-3.906594359E0,-7.730827762E0,-4.486593713E0,9.754829600E0
1.253217604E1,-2.782459549E0,-6.675120578E0,-5.126844531E0,8.864753280E0
1.254211904E1,-1.783416269E0,-7.059637572E0,-4.681804762E0,8.656694061E0
1.255206304E1,-1.147967038E0,-7.943095139E0,-3.535584141E0,8.769888479E0
1.256200704E1,-1.200913722E0,-8.844986054E0,-2.158335936E0,9.183375527E0
1.257195104E1,-8.481414078E-1,-8.428636233E0,-1.163346239E0,8.550709155E0
1.258189404E1,-3.444872484E-1,-5.970224113E0,-3.029407346E-1,5.987822685E0
1.259183804E1,-2.613032967E-1,-2.218105005E0,4.462454653E-1,2.277587373E0
1.260178204E1,-5.488392493E-1,1.861725397E0,6.989188564E-1,2.062942933E0
1.261172504E1,-6.647782798E-1,5.650007195E0,5.440367849E-1,5.714935475E0
1.262166904E1,-6.123882508E-1,8.907405081E0,3.212004197E-1,8.934206980E0
1.263161304E1,-6.033581033E-1,1.161111550E1,1.984205854E-1,1.162847431E1
1.264155704E1,-3.147813463E-1,1.356406331E1,7.058875680E-1,1.358606558E1
1.265150004E1,1.177382188E-1,1.483977958E1,1.835455319E0,1.495332126E1
1.266144404E1,2.811119092E-1,1.499927525E1,3.278526800E0,1.535597669E1
1.267138804E1,-3.442855194E-2,1.345900054E1,4.434649973E0,1.417081512E1
1.268133104E1,-5.413849264E-2,1.087834945E1,4.965750232E0,1.195826464E1
1.269127504E1,3.665207264E-1,8.338206704E0,4.795544801E0,9.625865073E0
1.270121904E1,7.069967848E-1,6.619343988E0,4.183674613E0,7.862486410E0
1.271116304E1,9.823874858E-1,5.816928245E0,3.542515723E0,6.881217699E0
1.272110604E1,1.095440623E0,5.844852793E0,2.830002090E0,6.585681905E0
1.273105004E1,9.403604771E-1,6.332812294E0,2.061377552E0,6.725924977E0
1.274099404E1,7.928245550E-1,7.189303088E0,1.302584231E0,7.349243181E0
1.275093704E1,9.637082630E-1,8.107548079E0,7.423531437E-1,8.198302121E0
1.276088104E1,1.347164719E0,8.761639257E0,5.601774390E-1,8.882284279E0
1.277082504E1,1.795640020E0,9.330725952E0,7.286506324E-1,9.529832193E0
1.278076804E1,2.118485846E0,9.924203138E0,1.103575562E0,1.020762799E1
1.279071204E1,2.260518807E0,1.032082445E1,1.451894929E0,1.066477199E1
1.280065604E1,2.341572033E0,1.035110134E1,1.456120127E0,1.071207470E1
1.281060004E1,2.386647634E0,9.961576202E0,1.345128280E0,1.033143056E1
1.282054304E1,2.268527007E0,9.304660819E0,1.275102756E0,9.661719039E0
1.283048704E1,2.078255394E0,8.615116219E0,1.286464627E0,8.955130607E0
1.284043104E1,1.902666870E0,7.993168355E0,1.455570927E0,8.344433372E0
1.285037404E1,1.714218126E0,7.438316122E0,1.845510776E0,7.853215936E0
1.286031804E1,1.518577892E0,7.054523013E0,2.619547642E0,7.676874598E0
1.287026204E1,1.206162037E0,6.908870625E0,3.427144603E0,7.805936222E0
1.288020604E1,8.477575381E-1,6.892793705E0,3.963042502E0,7.995936705E0
1.289014904E1,5.680083226E-1,6.987872940E0,4.242492048E0,8.194616554E0
1.290009304E1,2.636158705E-1,7.214011082E0,4.587706690E0,8.553274337E0
1.291003704E1,-4.083175009E-1,7.806293682E0,4.782594388E0,9.163959477E0
1.291998004E1,-1.153975637E0,8.516045090E0,2.835930289E0,9.049706313E0
1.292992404E1,-1.226404366E0,8.152459958E0,-1.728881335E0,8.423520743E0
1.293986804E1,-5.413385873E-1,5.603217191E0,-7.076220276E0,9.042233338E0
1.294981204E1,-1.821662761E0,2.024801318E0,-7.755188432E0,8.219563444E0
1.295975504E1,-5.841316981E0,-4.774286664E-1,-2.021142715E-1,5.864279358E0
1.296969904E1,-4.842949932E0,-3.714097003E0,1.642690453E0,6.320372815E0
1.297964304E1,6.840379849E-2,-9.151839160E0,-1.276502842E1,1.570690262E1
1.298958604E1,1.962946840E-1,-1.653621355E1,-2.147981687E1,2.710843822E1
1.299953004E1,-2.313832842E0,-2.269256915E1,-2.659343500E0,2.296472567E1
1.300947404E1,2.165535467E0,-2.608678195E1,5.970765565E0,2.684883196E1
1.301941704E1,6.091049808E0,-2.262347611E1,-5.241684431E0,2.400828638E1
1.302936104E1,5.505368130E0,-1.292005682E1,-8.370061165E0,1.634915504E1
1.303930504E1,6.477180634E0,-8.219539801E0,-5.470869557E0,1.180868821E1
1.304924904E1,5.447504668E0,-9.562336503E0,-1.100179236E1,1.556126671E1
1.305919204E1,1.683245279E0,-1.491544255E1,-1.229174426E1,1.940079169E1
1.306913604E1,-3.653231874E0,-1.860342180E1,-7.850500386E0,2.051983826E1
1.307908004E1,-9.421508068E0,-1.933641940E1,-6.350558594E0,2.242747252E1
1.308902404E1,-1.149168846E1,-1.775938323E1,-6.303731752E0,2.207241787E1
1.309896704E1,-8.095320967E0,-1.396038641E1,-4.501713443E0,1.675386625E1
1.310891104E1,-4.789422181E0,-1.016669185E1,-3.266249401E0,1.170335734E1
1.311885504E1,-3.310573050E0,-8.128715585E0,-3.577768878E0,9.478203475E0
1.312879804E1,-2.621768122E0,-7.570321693E0,-2.466741771E0,8.382616154E0
1.313874204E1,-2.563273746E0,-8.372562604E0,-7.066363040E-1,8.784617904E0
1.314868604E1,-3.008551497E0,-9.423527112E0,4.442188203E-1,9.902099560E0
1.315862904E1,-2.856062253E0,-9.851552653E0,1.016164219E0,1.030741340E1
1.316857304E1,-1.783128148E0,-8.995838370E0,6.568209502E-1,9.194349772E0
1.317851704E1,-6.749721694E-1,-6.533483473E0,-3.042236137E-1,6.575298148E0
1.318846104E1,3.685837702E-1,-3.008930982E0,-9.839883073E-1,3.187122940E0
1.319840404E1,1.281809951E0,1.271205148E0,-1.699089772E0,2.479093651E0
1.320834829E1,2.074608632E0,5.744183620E0,-2.160813840E0,6.478330254E0
1.321829229E1,2.399767324E0,9.601866605E0,-2.339485016E0,1.016995160E1
1.322823529E1,1.995687885E0,1.248439599E1,-1.881307576E0,1.278210591E1
1.323817929E1,8.093958566E-1,1.516031225E1,-5.496487963E-1,1.519184989E1
1.324812329E1,-4.073462784E-1,1.739347267E1,1.693193439E0,1.748043839E1
1.325806729E1,-9.251974775E-1,1.713158523E1,3.511661135E0,1.751225191E1
1.326801029E1,-6.190251330E-1,1.315871444E1,3.183432362E0,1.355246101E1
1.327795429E1,7.965775904E-1,8.932831113E0,2.190392711E0,9.231891886E0
1.328789829E1,1.245659686E0,6.608921911E0,2.483017788E0,7.169023239E0
1.329784129E1,5.773222062E-1,5.348493766E0,2.302142358E0,5.851456735E0
1.330778529E1,-4.105115224E-1,4.910312780E0,7.000823792E-1,4.976927430E0
1.331772929E1,-8.684175052E-1,5.229494741E0,-1.293417259E-1,5.302687384E0
1.332767329E1,-8.072310711E-1,5.879511579E0,9.511383574E-1,6.010402863E0
1.333761629E1,-2.254025620E-1,6.983026768E0,2.399255254E0,7.387143895E0
1.334756029E1,6.353034890E-1,8.484805756E0,3.344165304E0,9.142154058E0
1.335750429E1,1.742474942E0,9.811914378E0,3.668250740E0,1.061913114E1
1.336744729E1,2.988308437E0,1.077169039E1,3.117704980E0,1.160514479E1
1.337739129E1,4.161698438E0,1.144054052E1,2.038639923E0,1.234349035E1
1.338733529E1,4.915847754E0,1.168307952E1,8.590600598E-1,1.270424694E1
1.339727929E1,5.089654486E0,1.119681571E1,-1.232850337E-1,1.229993756E1
1.340722229E1,4.608110549E0,9.879425161E0,-4.339098868E-1,1.090990386E1
1.341716629E1,4.042095688E0,8.367740990E0,1.512569439E-1,9.294111334E0
1.342711029E1,3.990248719E0,7.345796213E0,1.020336792E0,8.421632503E0
1.343705329E1,3.822381882E0,6.894332108E0,1.835342760E0,8.093880498E0
1.344699729E1,3.172467956E0,6.881620261E0,2.377733992E0,7.941968854E0
1.345694129E1,2.084479609E0,7.227495346E0,2.648286707E0,7.974657780E0
1.346688529E1,9.907090969E-1,7.723344496E0,2.789755704E0,8.271293225E0
1.347682829E1,2.444589302E-1,7.983604649E0,2.910390780E0,8.501063337E0
1.348677229E1,-2.147581445E-1,7.998969963E0,3.104556054E0,8.583001213E0
1.349671629E1,-6.534693262E-1,8.122948476E0,3.265377581E0,8.779066286E0
1.350665929E1,-1.464702963E0,8.527613221E0,2.818025823E0,9.099824809E0
1.351660329E1,-2.681395104E0,8.993470248E0,1.070367031E0,9.445531874E0
1.352654729E1,-3.452216879E0,8.623321032E0,-8.719786057E-1,9.329513047E0
1.353649129E1,-3.773990618E0,6.749866120E0,-2.171143093E0,8.032282375E0
1.354643429E1,-4.254872065E0,4.076371189E0,-2.328899801E0,6.335969748E0
1.355637829E1,-5.104374851E0,1.219363149E0,-6.192192605E-1,5.284403618E0
1.356632229E1,-5.086644339E0,-2.942932874E0,-2.722811517E0,6.476766716E0
1.357626529E1,-1.252078321E0,-9.061096221E0,-1.533249404E1,1.785375418E1
1.358620929E1,2.705319571E0,-1.582731116E1,-1.875108504E1,2.468654943E1
1.359615329E1,2.238778567E0,-1.973893938E1,4.452637178E-1,1.987048357E1
1.360609729E1,3.542354924E0,-2.098828121E1,1.225717202E1,2.456205391E1
1.361604029E1,4.484371186E0,-2.049384299E1,1.807965512E0,2.105649365E1
1.362598429E1,1.870837990E0,-1.474569788E1,-3.920843439E0,1.537233405E1
1.363592829E1,3.762316944E0,-8.817532791E0,-5.496392069E0,1.105053117E1
1.364587129E1,4.220915530E0,-6.378857363E0,-1.609294198E1,1.781821345E1
1.365581529E1,7.741486944E-1,-8.085784158E0,-1.684562013E1,1.870171461E1
1.366575929E1,-4.385424896E0,-1.304616957E1,-1.156531075E1,1.797751108E1
1.367570329E1,-5.156341395E0,-1.788655901E1,-9.198497602E0,2.076365112E1
1.368564629E1,-2.606566531E0,-1.986486268E1,-4.958195044E0,2.063954109E1
1.369559029E1,-2.540214667E0,-1.654141757E1,-3.733510929E0,1.714672825E1
1.370553429E1,-3.758670328E0,-1.177322604E1,-5.695451170E0,1.360788809E1
1.371547729E1,-3.398200008E0,-9.503542750E0,-6.763851491E0,1.214968210E1
1.372542129E1,-1.765379217E0,-8.848525958E0,-6.266524165E0,1.098554962E1
1.373536529E1,-2.943200384E-1,-9.009054832E0,-4.622371908E0,1.012995633E1
1.374530829E1,4.497980873E-1,-9.826197957E0,-2.907362507E0,1.025715562E1
1.375525229E1,1.053898933E0,-1.088389261E1,-2.099441026E0,1.113451723E1
1.376519629E1,1.398189861E0,-1.123305558E1,-1.321559323E0,1.139662194E1
1.377514029E1,1.486298192E0,-1.067995693E1,-7.251415721E-1,1.080723798E1
1.378508329E1,1.408930612E0,-8.744585853E0,-7.842969757E-1,8.892018272E0
1.379502729E1,1.068807287E0,-5.551896179E0,-1.377488233E0,5.819224521E0
1.380497129E1,6.791707626E-1,-1.691951491E0,-1.773730649E0,2.543637786E0
1.381491529E1,2.174320762E-1,2.399708998E0,-1.645016768E0,2.917526375E0
1.382485829E1,-1.366456291E-1,6.443541017E0,-1.076935501E0,6.534346405E0
1.383480229E1,-2.107918319E-1,9.943558592E0,-4.126438558E-1,9.954349080E0
1.384474629E1,-5.112206027E-2,1.275573252E1,2.706876393E-1,1.275870673E1
1.385468929E1,-2.256338194E-1,1.542700843E1,5.037984395E-1,1.543688157E1
1.386463329E1,-1.049592897E0,1.776597422E1,8.643179492E-1,1.781792723E1
1.387457729E1,-2.018977637E0,1.810011452E1,1.283898869E0,1.825756864E1
1.388452129E1,-2.135079221E0,1.499345376E1,1.027972087E0,1.517955683E1
1.389446429E1,-9.066444084E-1,1.034733105E1,9.277953954E-1,1.042833008E1
1.390440829E1,-1.053209254E-1,6.719961120E0,1.553310499E0,6.897952121E0
1.391435229E1,2.049466628E-1,4.149669546E0,2.233230582E0,4.716892972E0
1.392429529E1,-7.858233914E-2,2.520049959E0,2.244746089E0,3.375753543E0
1.393423929E1,-4.973026215E-1,2.137932662E0,1.465590716E0,2.639322282E0
1.394418329E1,-3.208102642E-1,3.094750566E0,5.269300977E-1,3.155638702E0
1.395412729E1,3.496066318E-1,5.032223133E0,1.960841111E-1,5.048162383E0
1.396407029E1,1.224023965E0,7.397568630E0,4.587164068E-1,7.512168598E0
1.397401429E1,2.126414963E0,9.496717295E0,1.209684984E0,9.806763877E0
1.398395829E1,2.897940888E0,1.090754343E1,2.841054497E0,1.163804776E1
1.399390129E1,3.679939908E0,1.172467077E1,4.256812756E0,1.300501123E1
1.400384529E1,4.375998599E0,1.188162641E1,4.094634967E0,1.330745826E1
1.401378929E1,4.754592656E0,1.155315322E1,2.847581159E0,1.281367313E1
1.402373329E1,4.840736761E0,1.111979736E1,1.785700045E0,1.225852154E1
1.403367629E1,4.379387938E0,1.036994574E1,1.297502708E0,1.133129854E1
1.404362029E1,3.278232685E0,9.116233710E0,1.344067595E0,9.780544171E0
1.405356429E1,2.010588491E0,8.146397565E0,1.696782022E0,8.560685054E0
1.406350729E1,1.169634115E0,7.538226326E0,1.815931320E0,7.841588274E0
1.407345129E1,9.048902437E-1,7.303645390E0,1.525528039E0,7.515936278E0
1.408339529E1,8.466874246E-1,7.421370891E0,1.072001767E0,7.546046202E0
1.409333929E1,8.367428456E-1,7.619095073E0,7.291586092E-1,7.699507815E0
1.410328229E1,9.080730294E-1,7.772179856E0,9.394987437E-1,7.881245729E0
1.411322629E1,7.911485238E-1,8.062360797E0,1.449970610E0,8.229823350E0
1.412317029E1,4.093252686E-1,8.703515595E0,1.499321988E0,8.841193206E0
1.413311329E1,-1.705713936E-1,9.572915871E0,8.998154452E-1,9.616625224E0
1.414305729E1,-8.529596597E-1,1.030034049E1,-6.264706850E-3,1.033559837E1
1.415300129E1,-1.926547337E0,1.000048474E1,-1.109883392E0,1.024466305E1
1.416294529E1,-2.173705196E0,7.708097296E0,-1.765724349E0,8.201069484E0
1.417288829E1,-2.939131891E0,3.788713907E0,-4.979944932E-1,4.820876254E0
1.418283229E1,-4.896933181E0,-1.341773440E0,-2.167072261E0,5.520553662E0
1.419277629E1,-5.173897660E0,-8.656109878E0,-1.099912954E1,1.492240952E1
1.420271929E1,-3.496758336E0,-2.012630339E1,-1.894773626E1,2.786237815E1
1.421266329E1,-3.449331570E0,-2.970973781E1,-8.786410986E0,3.117318443E1
1.422260729E1,-2.232260529E0,-3.259254845E1,1.230355915E0,3.269206291E1
1.423255129E1,9.421177847E-1,-2.734483378E1,5.971428055E-1,2.736757388E1
1.424249429E1,-2.557276477E-1,-1.487100722E1,2.121045318E0,1.502368416E1
1.425243829E1,-3.251547820E-1,-5.303812267E0,3.296203517E0,6.253087863E0
1.426238229E1,8.326815158E-2,-4.980149585E-1,-2.257866071E0,2.313636030E0
1.427232529E1,-6.221914002E-1,5.695515490E-1,-6.652912268E0,6.706172735E0
1.428226929E1,-2.403620237E-1,-2.992609064E0,-1.189910841E1,1.227201140E1
1.429221329E1,-1.696990767E0,-8.993922822E0,-1.181803910E1,1.494779160E1
1.430215729E1,-3.443836942E0,-1.490085843E1,-8.067644926E0,1.729111013E1
1.431210029E1,-3.594863505E0,-1.976873446E1,-5.345647926E0,2.079186998E1
1.432204429E1,-2.116169764E0,-2.191712779E1,-3.139918553E0,2.224180194E1
1.433198829E1,6.114566432E-1,-1.926680245E1,-2.614973073E0,1.945306248E1
1.434193129E1,7.075182834E-1,-1.436183753E1,-2.558805304E0,1.460515128E1
1.435187529E1,-4.354589604E-1,-1.143224449E1,-1.887262527E0,1.159515410E1
1.436181929E1,-1.414205239E0,-1.025606771E1,-1.927441961E0,1.053099871E1
1.437176329E1,-1.633702990E0,-9.825761755E0,-2.162694158E0,1.019273396E1
1.438170629E1,-1.036941862E0,-9.575296857E0,-2.088509949E0,9.855122126E0
1.439165029E1,1.198036015E-2,-8.800954766E0,-1.708824216E0,8.965323671E0
1.440159429E1,1.219425568E0,-7.205046131E0,-1.293816916E0,7.421162354E0
1.441153829E1,2.287217340E0,-4.972361678E0,-8.082021475E-1,5.532534187E0
1.442148129E1,2.836664407E0,-2.231331992E0,-4.114065850E-1,3.632459607E0
1.443142529E1,2.990171360E0,1.079284912E0,-5.593262306E-1,3.227820707E0
1.444136929E1,2.878857915E0,4.821885338E0,-1.424924355E0,5.793859726E0
1.445131229E1,2.584083695E0,8.758361308E0,-2.559446451E0,9.483519783E0
1.446125629E1,2.488185557E0,1.224448590E1,-2.887718786E0,1.282409537E1
1.447120029E1,1.922170697E0,1.554865742E1,-8.703509601E-1,1.569117581E1
1.448114429E1,9.318293164E-1,1.804202361E1,1.705595384E0,1.814640398E1
1.449108729E1,-1.836531499E-1,1.834434804E1,2.568939114E0,1.852426198E1
1.450103129E1,-2.117335845E0,1.509504797E1,1.420122767E0,1.530883186E1
1.451097529E1,-3.558712510E0,9.737479908E0,8.546889737E-2,1.036775070E1
1.452091829E1,-4.287090223E0,6.085228904E0,-2.948470187E-1,7.449569663E0
1.453086229E1,-5.035942547E0,4.907885601E0,2.564932309E-2,7.031978121E0
1.454080629E1,-4.952285264E0,4.533628131E0,-6.786863208E-2,6.714426224E0
1.455075029E1,-2.851512242E0,3.812043713E0,-1.037698272E0,4.872331787E0
1.456069329E1,-2.600505307E-2,2.988489116E0,-2.432165723E0,3.853203026E0
1.457063729E1,2.082872794E0,3.699663152E0,-2.056067988E0,4.717338453E0
1.458058129E1,3.567513154E0,6.367907283E0,1.153404072E0,7.389704610E0
1.459052429E1,4.435435254E0,9.210822948E0,5.341839634E0,1.153462596E1
1.460046829E1,4.886584194E0,1.157201400E1,8.360243690E0,1.508919771E1
1.461041229E1,4.987587828E0,1.327390809E1,8.233230472E0,1.639691289E1
1.462035629E1,4.991800747E0,1.388333181E1,4.800714909E0,1.551489092E1
1.463029929E1,5.125007921E0,1.283089380E1,3.760367775E-1,1.382168389E1
1.464024329E1,4.181530439E0,1.048035521E1,-1.276364000E0,1.135570989E1
1.465018729E1,3.139446098E0,8.620493318E0,-2.852191396E-1,9.178800402E0
1.466013129E1,1.924020025E0,7.742649663E0,5.667622809E-1,7.998230826E0
1.467007429E1,7.610760744E-1,7.476930549E0,7.365154298E-1,7.551568195E0
1.468001829E1,4.217728212E-2,7.321013959E0,8.741226335E-1,7.373134658E0
1.468996229E1,-4.822657755E-1,7.344487022E0,9.544912970E-1,7.421935295E0
1.469990529E1,-9.613220143E-1,7.621249772E0,9.763085742E-1,7.743433769E0
1.470984929E1,-1.254348502E0,7.840809796E0,1.217541157E0,8.033311577E0
1.471979329E1,-1.292925800E0,7.991256316E0,1.770733074E0,8.286575303E0
1.472973729E1,-9.969928803E-1,8.355240812E0,2.434451692E0,8.759600383E0
1.473968029E1,-3.632865583E-1,8.994481232E0,2.561986774E0,9.359297302E0
1.474962429E1,-5.715141669E-2,9.434025203E0,2.005653441E0,9.645037249E0
1.475956829E1,-1.063174737E0,9.134441355E0,1.665624110E0,9.345729670E0
1.476951129E1,-1.835263530E0,7.299981524E0,3.006372825E0,8.105319244E0
1.477945529E1,-1.788129710E0,3.782509426E0,3.497525199E0,5.453207124E0
1.478939929E1,-1.887598595E0,-1.122984663E0,-5.201374311E0,5.646097567E0
1.479934329E1,-3.922285362E0,-9.733959299E0,-1.883050076E1,2.155741276E1
1.480928629E1,-6.134684654E0,-2.232070729E1,-2.275217099E1,3.245781284E1
1.481923029E1,-5.147419714E0,-3.288125121E1,-1.569284040E1,3.679589448E1
1.482917429E1,5.985970080E-2,-3.281285282E1,-3.095112216E0,3.295855903E1
1.483911729E1,6.972286602E0,-2.355027149E1,-3.072254573E0,2.475210730E1
1.484906129E1,7.605520177E0,-1.306057243E1,-7.902131885E-1,1.513429636E1
1.485900529E1,6.716469748E0,-7.073990148E0,3.338681200E0,1.031014523E1
1.486894929E1,1.727539984E0,-4.580409949E0,-1.310434703E0,5.067720277E0
1.487889229E1,-3.197233253E0,-6.549679676E0,-6.680632163E0,9.886933318E0
1.488883629E1,-5.228870843E0,-1.084555476E1,-1.010232219E1,1.571699914E1
1.489878029E1,-6.343168883E0,-1.524310531E1,-1.027374267E1,1.944576663E1
1.490872429E1,-4.025541636E0,-1.828906613E1,-6.623897799E0,1.986380999E1
1.491866729E1,-2.064610624E0,-1.861202422E1,-3.077059230E0,1.897731162E1
1.492861129E1,-2.173914088E0,-1.554218338E1,-2.188535635E0,1.584534805E1
1.493855529E1,-2.254679339E0,-1.171133444E1,-1.697971492E0,1.204666096E1
1.494849829E1,-2.270558915E0,-8.409383106E0,-1.963479521E0,8.929076875E0
1.495844229E1,-2.065191837E0,-5.490286406E0,-2.146024039E0,6.246093285E0
1.496838629E1,-1.227548374E0,-3.235833355E0,-2.116376609E0,4.056666422E0
1.497833029E1,5.018182799E-2,-1.253720804E0,-2.384008055E0,2.694035723E0
1.498827329E1,9.792612720E-1,1.201119252E0,-2.540189524E0,2.975601269E0
1.499821729E1,1.323080184E0,3.622728996E0,-2.236065166E0,4.458104304E0
1.500816129E1,1.848809190E0,5.370681025E0,-9.401666419E-1,5.757275694E0
1.501810429E1,3.105223514E0,6.196662217E0,1.122511039E0,7.021471835E0
1.502804829E1,4.119772440E0,6.727024557E0,2.334131451E0,8.226393741E0
1.503799229E1,3.971219541E0,7.649956092E0,2.216212992E0,8.899663639E0
1.504793629E1,2.926487872E0,8.944837786E0,1.507553552E0,9.531378284E0
1.505787929E1,1.460924930E0,1.020720136E1,9.121481001E-1,1.035148663E1
1.506782329E1,-5.846894056E-2,1.120640164E1,1.206822041E0,1.127134755E1
1.507776729E1,-1.703201241E0,1.201183571E1,2.662206881E0,1.242064560E1
1.508771129E1,-2.894020330E0,1.192345973E1,3.730660411E0,1.282427669E1
1.509765429E1,-2.780812680E0,1.082012638E1,3.041583588E0,1.157839734E1
1.510759829E1,-1.787550251E0,9.536045083E0,1.597703730E0,9.832809819E0
1.511754229E1,-7.067848963E-1,8.496789624E0,9.169988041E-1,8.575305570E0
1.512748529E1,1.163196842E-1,7.666593175E0,4.901359816E-1,7.683125305E0
1.513742929E1,4.840893759E-1,7.430208957E0,-1.040628239E-1,7.446688979E0
1.514737329E1,7.354328178E-1,7.869015595E0,-4.311035156E-1,7.915056418E0
1.515731729E1,1.294081795E0,8.484357859E0,-2.654684146E-1,8.586585436E0
1.516726029E1,1.867733996E0,8.914384902E0,9.055451319E-2,9.108396598E0
1.517720429E1,2.051678045E0,8.990212179E0,4.176679297E-1,9.230804100E0
1.518714829E1,2.079566486E0,8.723221881E0,6.560948722E-1,8.991643745E0
1.519709129E1,1.931507238E0,8.285035633E0,6.196713965E-1,8.529743741E0
1.520703458E1,1.549674116E0,7.975989820E0,4.939236617E-1,8.140139069E0
1.521697858E1,1.253045158E0,7.963649272E0,7.662682557E-1,8.097962641E0
1.522692258E1,1.075534947E0,7.991731110E0,1.389798961E0,8.182669656E0
1.523686558E1,2.543701435E-1,7.411116629E0,1.842451805E0,7.640941206E0
1.524680958E1,-9.162141077E-1,6.183955632E0,2.111221704E0,6.598334080E0
1.525675358E1,-1.884447969E0,4.456572354E0,9.381635320E-1,4.928725201E0
1.526669758E1,-2.583465351E0,1.972183394E0,-1.370512797E0,3.527336940E0
1.527664058E1,-3.111493483E0,-1.500875593E0,-2.367608954E0,4.188029537E0
1.528658458E1,-3.699150351E0,-6.432990886E0,-5.758501697E-1,7.443029523E0
1.529652858E1,-7.247330271E0,-1.183589650E1,4.925554132E-1,1.388721905E1
1.530647158E1,-1.067975579E1,-1.448558800E1,1.364991856E0,1.804861896E1
1.531641558E1,-8.717655331E0,-1.167675400E1,2.338731017E0,1.475851487E1
1.532635958E1,-2.995817724E0,-6.423836485E0,1.044425274E0,7.164595116E0
1.533630358E1,2.516889831E0,-5.752366213E0,-2.238978395E0,6.666143992E0
1.534624658E1,5.295719721E0,-1.410744155E1,-7.961948901E0,1.704280449E1
1.535619058E1,6.546087731E0,-2.760256969E1,-9.512961445E0,2.992072114E1
1.536613458E1,6.113694904E0,-3.721530569E1,-3.044199632E0,3.783679947E1
1.537607758E1,-2.157045163E-1,-3.534651685E1,1.005736587E0,3.536148029E1
1.538602158E1,-4.424182287E0,-2.311902062E1,-8.899729733E-1,2.355535089E1
1.539596558E1,-3.084119451E0,-1.118700291E1,-2.007047271E0,1.177663219E1
1.540590958E1,-3.100363308E0,-4.020971160E0,-3.534874289E0,6.186743727E0
1.541585258E1,-1.853497488E0,1.402126645E0,-4.798095356E0,5.331334834E0
1.542579658E1,-8.844305438E-1,5.193568863E0,-4.175544352E0,6.722391357E0
1.543574058E1,-6.437874334E-1,6.854154720E0,-2.336430284E0,7.269993511E0
1.544568458E1,-1.831135981E-2,7.174150613E0,-5.129630730E-1,7.192489377E0
1.545562758E1,1.380629942E0,7.254534041E0,8.099984121E-1,7.429030934E0
1.546557158E1,2.968806803E0,7.222061529E0,1.410434954E0,7.934816527E0
1.547551558E1,4.393164563E0,7.022358649E0,8.226658201E-1,8.324073217E0
1.548545858E1,5.121003163E0,7.066373565E0,-2.909574509E-1,8.731721765E0
1.549540258E1,4.717940847E0,7.568409069E0,-9.325736669E-1,8.967133060E0
1.550534658E1,2.899752648E0,8.421451174E0,-9.103927660E-1,8.953112324E0
1.551529058E1,1.382268989E-1,9.012709926E0,-6.924109054E-1,9.040325202E0
1.552523358E1,-2.239476286E0,8.581185411E0,-4.138495517E-1,8.878246930E0
1.553517758E1,-3.498890231E0,7.469916229E0,1.267594492E-1,8.249724194E0
1.554512158E1,-3.054310053E0,6.941871725E0,7.260511795E-1,7.618762581E0
1.555506558E1,-1.042833224E0,7.314327083E0,4.026031633E-1,7.399254768E0
1.556500858E1,9.449708605E-1,8.202900379E0,-5.978215941E-1,8.278764112E0
1.557495258E1,2.406188590E0,9.332761953E0,-4.740512415E-1,9.649606924E0
1.558489658E1,3.205644473E0,1.028331106E1,9.178959862E-1,1.081041978E1
1.559484058E1,3.254352071E0,1.058543669E1,2.294555011E0,1.130960919E1
1.560478358E1,2.778445143E0,1.019983621E1,3.217900529E0,1.105039818E1
1.561472758E1,1.681554264E0,9.396341652E0,3.485048118E0,1.016191033E1
1.562467158E1,1.994549578E-1,8.594211838E0,3.189693561E0,9.169209585E0
1.563461458E1,-1.135309644E0,8.443820282E0,2.836424671E0,8.979550872E0
1.564455858E1,-2.369356394E0,9.051512049E0,2.215585878E0,9.615224433E0
1.565450258E1,-3.703809412E0,9.445451832E0,1.189510628E0,1.021517009E1
1.566444658E1,-5.299367214E0,8.625773939E0,-1.000179394E-1,1.012409366E1
1.567438958E1,-6.268756047E0,6.184886509E0,-1.606589013E0,8.951606100E0
1.568433358E1,-5.315444718E0,1.390657917E0,-3.699906103E0,6.623985746E0
1.569427758E1,-4.395805750E0,-4.807651461E0,-4.798578336E0,8.090919281E0
1.570422158E1,-4.926684984E0,-1.133751609E1,-2.285290828E0,1.257115946E1
1.571416458E1,-1.658937526E0,-1.556057755E1,5.626997817E-1,1.565887220E1
1.572410858E1,4.465558940E0,-1.506817416E1,1.425759045E0,1.578049043E1
1.573405258E1,2.354417781E0,-1.038107416E1,2.701029762E0,1.098205562E1
1.574399558E1,-1.159340092E0,-5.645298432E0,1.739395068E0,6.019880318E0
1.575393958E1,1.085130812E0,-6.699262562E0,-3.033221485E0,7.433576550E0
1.576388358E1,3.172245469E0,-1.218060156E1,-1.943383956E0,1.273604871E1
1.577382758E1,2.426423172E0,-1.800859274E1,9.360985878E-1,1.819541762E1
1.578377058E1,1.361104627E0,-2.020651315E1,7.484085202E-1,2.026612679E1
1.579371458E1,1.553672296E0,-1.940925465E1,2.414502454E-1,1.947283652E1
1.580365858E1,2.689960105E0,-1.565255191E1,5.400839210E-1,1.589119119E1
1.581360258E1,2.084992264E0,-1.044036961E1,-1.030284076E0,1.069626082E1
1.582354558E1,1.064190179E0,-6.708912222E0,-2.593450642E0,7.271037764E0
1.583348958E1,6.958500183E-1,-4.631970112E0,-2.899973381E0,5.509010798E0
1.584343358E1,6.685078532E-1,-3.782721680E0,-2.845405995E0,4.780399705E0
1.585337658E1,8.932467563E-1,-3.286108884E0,-2.316892398E0,4.118785227E0
1.586332058E1,1.013875473E0,-2.145861486E0,-3.894000041E0,4.560252330E0
1.587326458E1,9.853362367E-1,-5.453429067E-1,-4.620551670E0,4.755815820E0
1.588320858E1,9.294549083E-1,1.139979011E0,-4.655119239E0,4.881964123E0
1.589315158E1,7.756420002E-1,2.914451671E0,-4.479300481E0,5.399979801E0
1.590309558E1,7.739542745E-1,4.450595915E0,-3.780424894E0,5.890536614E0
1.591303958E1,7.700164671E-1,5.454054134E0,-2.402703942E0,6.009377513E0
1.592298358E1,4.917797801E-1,6.213643700E0,-6.934177959E-1,6.271526419E0
1.593292658E1,-2.531069621E-2,6.894278314E0,1.065775578E0,6.976216143E0
1.594287058E1,-5.156019579E-1,7.632338431E0,2.265982007E0,7.978289902E0
1.595281458E1,-4.305411231E-1,8.172433462E0,1.993692523E0,8.423113690E0
1.596275858E1,-3.239438967E-1,8.638048414E0,7.426992258E-1,8.675968084E0
1.597270158E1,-3.880639885E-1,9.382037609E0,-7.227801009E-1,9.417835973E0
1.598264558E1,1.624903588E-1,9.956561630E0,-2.170489959E0,1.019169021E1
1.599258958E1,1.213450737E0,9.734708912E0,-3.197911237E0,1.031812273E1
1.600253258E1,2.498046594E0,9.035728660E0,-2.559422185E0,9.717781183E0
1.601247658E1,3.595948749E0,8.760199673E0,-3.746240171E-1,9.476934571E0
1.602242058E1,3.919889174E0,9.313793585E0,1.962154688E0,1.029380071E1
1.603236458E1,3.696556818E0,1.034887706E1,3.328870157E0,1.148238499E1
1.604230758E1,3.388987135E0,1.107343829E1,3.137995988E0,1.199805352E1
1.605225158E1,2.999234836E0,1.088729686E1,1.879632934E0,1.144821656E1
1.606219558E1,2.278892074E0,9.955015626E0,9.947423601E-1,1.026085755E1
1.607213958E1,8.956526662E-1,8.562772529E0,8.783302899E-1,8.654174206E0
1.608208258E1,-1.334589258E0,6.745842651E0,6.600524139E-1,6.908197359E0
1.609202658E1,-3.791764692E0,5.427912987E0,7.854998942E-1,6.667587942E0
1.610197058E1,-6.057148236E0,4.991653397E0,2.085800056E0,8.121342886E0
1.611191458E1,-8.886898896E0,4.484263013E0,3.158437854E0,1.044324262E1
1.612185758E1,-1.053066816E1,2.352627218E0,3.596873778E0,1.137397590E1
1.613180158E1,-8.605377097E0,-2.951953958E0,1.491409828E0,9.219048238E0
1.614174558E1,-5.448548396E0,-1.058717448E1,-3.597888855E0,1.243863929E1
1.615168958E1,-2.278051829E0,-1.758378199E1,-6.742591599E0,1.896948736E1
1.616163258E1,1.415026773E0,-1.901119609E1,-3.198970753E0,1.933032052E1
1.617157658E1,5.386828111E0,-1.388687522E1,2.996520267E0,1.519349710E1
1.618152058E1,7.517359368E0,-1.196550705E1,3.340852271E0,1.452051462E1
1.619146358E1,7.879920652E0,-1.675825104E1,-1.403299012E0,1.857152055E1
1.620140758E1,6.790213662E0,-2.391616920E1,-3.691900388E0,2.513404621E1
1.621135258E1,3.400627480E0,-2.734562900E1,-2.963048465E0,2.771511048E1
1.622129658E1,-1.472682073E0,-2.132362838E1,-2.497027717E0,2.151978316E1
1.623123958E1,-5.975428720E0,-1.143158493E1,-2.506803092E0,1.314043166E1
1.624118358E1,-8.419139185E0,-6.047821342E0,-2.033798429E0,1.056382429E1
1.625112758E1,-9.458502232E0,-2.991143752E0,-2.107020625E0,1.014148615E1
1.626107158E1,-8.585121172E0,-8.127536201E-1,-1.746035897E0,8.798495061E0
1.627101458E1,-5.382570754E0,4.534667766E-1,-4.471935913E-2,5.401823753E0
1.628095858E1,-1.416262289E0,9.654179889E-1,1.268252889E0,2.132204529E0
1.629090258E1,1.792334735E0,1.562936186E0,1.530982322E0,2.828275126E0
1.630084658E1,3.780320521E0,3.111408114E0,1.410017317E0,5.095079247E0
1.631078958E1,4.456620593E0,5.214668541E0,1.064023460E0,6.941641090E0
1.632073358E1,3.924484793E0,7.544916710E0,7.399217252E-1,8.536675771E0
1.633067758E1,3.042541654E0,9.756762856E0,7.624956322E-1,1.024855506E1
1.634062058E1,2.505365261E0,1.144468035E1,1.183232034E0,1.177529624E1
1.635056458E1,2.115369134E0,1.229949066E1,1.456337790E0,1.256475932E1
1.636050858E1,1.312300988E0,1.215372308E1,9.088923705E-1,1.225810768E1
1.637045258E1,2.143728130E-1,1.109888771E1,2.287243652E-1,1.110331387E1
1.638039558E1,-4.324203086E-1,9.678091493E0,3.236632669E-1,9.693152231E0
1.639033958E1,-7.588582255E-1,8.365599740E0,5.638739026E-1,8.418852569E0
1.640028358E1,-4.739808556E-1,7.376174837E0,2.203407736E-1,7.394671266E0
1.641022758E1,5.936488017E-1,6.787749646E0,-5.326101561E-1,6.834444947E0
1.642017058E1,1.978872462E0,6.675449191E0,-9.607008938E-1,7.028549234E0
1.643011458E1,2.992027558E0,7.000541518E0,-9.495561008E-1,7.672122734E0
1.644005858E1,3.339072964E0,7.658488349E0,-8.177706774E-1,8.394676940E0
1.645000258E1,3.220220704E0,8.383115659E0,-4.375158647E-1,8.990988247E0
1.645994558E1,2.819135039E0,8.868175526E0,3.028281757E-1,9.310411615E0
1.646988958E1,1.816311827E0,9.006540529E0,6.527360854E-1,9.211016521E0
1.647983358E1,2.120353885E-2,8.598066323E0,3.717288414E-1,8.606124355E0
1.648977758E1,-1.334757950E0,7.408059120E0,1.796846446E-1,7.529489045E0
1.649972058E1,-1.901613348E0,5.734293054E0,9.316026637E-1,6.112784446E0
1.650966458E1,-2.968598058E0,3.426713371E0,1.981212664E0,4.947741159E0
1.651960858E1,-4.908151065E0,-2.059260714E-1,1.928844709E0,5.277574663E0
