"Time (s)","Linear Acceleration x (m/s^2)","Linear Acceleration y (m/s^2)","Linear Acceleration z (m/s^2)","Absolute acceleration (m/s^2)"
-1.632499916E-4,-8.998701167E-1,5.302307779E-1,-9.175743163E-2,1.048489547E0
9.780749999E-3,-9.222784013E-1,4.102023509E-1,-1.951619321E-1,1.028081513E0
1.972474999E-2,-9.429056239E-1,3.333450866E-1,-4.054447639E-1,1.079154956E0
2.966875001E-2,-9.902306485E-1,4.598680159E-1,-3.994162846E-1,1.162569868E0
3.961275000E-2,-8.393485111E-1,5.270443377E-1,-1.886393631E-1,1.008893684E0
4.955674999E-2,-7.174288023E-1,5.359514013E-1,-1.820261621E-1,9.138279458E-1
5.950075001E-2,-7.951926774E-1,6.952397883E-1,-2.219760936E-1,1.079334584E0
6.944475000E-2,-1.058496307E0,9.424586043E-1,-4.902516103E-1,1.499663060E0
7.938874999E-2,-1.245482077E0,9.062617081E-1,-6.233640593E-1,1.661661409E0
8.933275001E-2,-1.152670392E0,7.084100568E-1,7.969053268E-2,1.355302336E0
9.927675000E-2,-9.399364078E-1,5.998164448E-1,5.824937761E-1,1.257998099E0
1.092207500E-1,4.774435768E-1,-5.004576328E-1,1.060374432E0,1.266019016E0
1.191647500E-1,-1.284238592E0,2.897406453E-1,2.699371784E0,3.003302587E0
1.291087500E-1,-2.556774859E0,9.094452247E-1,3.180224580E0,4.180671797E0
1.390527500E-1,-2.509496027E0,5.703184113E-1,2.935815058E0,3.904080360E0
1.489967500E-1,-2.203464746E0,3.219330758E-1,2.534325936E0,3.373678370E0
1.589407500E-1,-1.451408148E0,3.072086173E-1,2.397417474E0,2.819321424E0
1.688837500E-1,-1.496507138E0,4.516170099E-1,2.790899420E0,3.198845277E0
1.788287500E-1,-2.320344448E0,6.696269372E-1,2.717001724E0,3.635174956E0
1.887717500E-1,-3.159717810E0,7.062883946E-1,1.956304110E0,3.782827739E0
1.987157500E-1,-4.118305373E0,3.870169714E-1,1.569496177E0,4.424199310E0
2.086597500E-1,-4.082535616E0,-1.340225682E-1,1.719554442E0,4.431921320E0
2.186037500E-1,-3.225938696E0,-4.763352370E-1,2.067511135E0,3.861110983E0
2.285477500E-1,-2.302351250E0,-4.142734748E-1,2.317550356E0,3.292944494E0
2.384917500E-1,-1.388755233E0,-2.801167130E-1,1.555007946E0,2.103605519E0
2.484357500E-1,3.220318937E-1,-5.152186364E-1,1.152513687E0,1.302859387E0
2.583797500E-1,4.933520964E-1,-5.219721705E-2,1.930047773E0,1.992788310E0
2.683237500E-1,4.830998808E-1,2.207455471E-1,2.637746809E0,2.690691792E0
2.782677500E-1,3.675048128E-2,3.925931686E-1,3.675458602E0,3.696549192E0
2.882117500E-1,2.326900931E-1,3.062400261E-1,3.836892625E0,3.856121452E0
2.981557500E-1,2.514068842E-2,4.806908280E-2,3.952126628E0,3.952498902E0
3.080997500E-1,-1.397373444E-1,-4.926431215E-1,3.954286589E0,3.987305631E0
3.180437500E-1,-1.203041232E0,-7.808398095E-1,3.402513499E0,3.692440538E0
3.279877500E-1,-2.263282347E0,3.926519331E-1,3.144161877E0,3.893889628E0
3.379317500E-1,-2.073067160E0,9.455599675E-1,4.547330496E0,5.086246725E0
3.478757500E-1,-3.967904462E-1,-1.168829173E-2,4.927220589E0,4.943185411E0
3.578197500E-1,5.926509744E-1,5.551638901E-3,5.184289917E0,5.218057870E0
3.677637500E-1,5.877337584E-1,7.752943102E-1,5.470791205E0,5.556623853E0
3.777077500E-1,1.786849169E-1,2.698545572E-1,4.863419865E0,4.874177116E0
3.876517500E-1,4.081368220E-1,-1.217792587E0,4.033798197E0,4.233334660E0
3.975957500E-1,-4.855498642E-2,-1.498735512E0,3.025369259E0,3.376599602E0
4.075397500E-1,1.354238534E-1,-1.670711480E0,2.236982156E0,2.795300634E0
4.174837500E-1,8.436359820E-1,-1.823177043E0,1.083202547E0,2.282328626E0
4.274277500E-1,1.353710238E0,-1.984801685E0,-1.437719232E-1,2.406790291E0
4.373717500E-1,1.195072939E0,-2.076973100E0,-9.892260969E-1,2.592409083E0
4.473157500E-1,1.052518406E0,-2.180882800E0,-1.136270122E0,2.674912068E0
4.572597500E-1,7.299020827E-1,-2.480361398E0,-1.588321288E0,3.034421564E0
4.672037500E-1,6.337452060E-1,-3.202590764E0,-2.007441519E0,3.832498147E0
4.771477500E-1,9.257250425E-1,-3.703658554E0,-1.560144725E0,4.124088396E0
4.870917500E-1,1.194115749E0,-4.272447626E0,-1.484573556E0,4.677999549E0
4.970357500E-1,1.707360366E0,-4.942781784E0,-2.164659115E0,5.659674926E0
5.069797500E-1,1.807776939E0,-5.355171871E0,-3.508545154E0,6.652504214E0
5.169237500E-1,9.204648873E-1,-5.173481923E0,-4.941600062E0,7.213292035E0
5.268677500E-1,1.046038229E0,-3.939033542E0,-5.109325688E0,6.535701203E0
5.368117500E-1,1.263300882E0,-2.955005620E0,-4.722462791E0,5.712236178E0
5.467557500E-1,9.914913082E-1,-2.657599860E0,-5.435978637E0,6.131537798E0
5.566997500E-1,9.360681823E-1,-2.383005842E0,-5.506965589E0,6.073023175E0
5.666437500E-1,3.906983784E-1,-2.315642409E0,-5.445677998E0,5.930451404E0
5.765877500E-1,7.154945433E-2,-2.583593990E0,-5.213623059E0,5.819101531E0
5.865317500E-1,-1.859455508E-1,-2.482084572E0,-5.071225231E0,5.649127802E0
5.964757500E-1,-1.837350109E-1,-2.268981044E0,-5.205807086E0,5.681765654E0
6.064197500E-1,8.598520651E-2,-2.001479698E0,-4.583007283E0,5.001726721E0
6.163637500E-1,6.245142066E-1,-1.825623518E0,-3.765665937E0,4.231212495E0
6.263086250E-1,1.167640434E0,-2.144490899E0,-2.651860818E0,3.604801131E0
6.362526250E-1,1.067762974E0,-2.254556547E0,-1.831956053E0,3.095029236E0
6.461966250E-1,4.199857660E-1,-1.865364119E0,-2.707739149E0,3.314788476E0
6.561406250E-1,3.236331537E-2,-8.787838876E-1,-3.761470560E0,3.862896488E0
6.660846250E-1,1.485227859E-1,1.356752837E-1,-3.712514162E0,3.717960221E0
6.760286250E-1,7.224424973E-1,6.987422705E-4,-2.302309003E0,2.412996145E0
6.859726250E-1,1.296120426E0,-4.337283307E-1,-1.081101642E0,1.742650047E0
6.959166250E-1,1.467025184E0,-6.503308332E-1,-3.477052635E-1,1.641947634E0
7.058606250E-1,2.045616675E0,-1.005079068E0,-5.282035482E-1,2.339600500E0
7.158046250E-1,1.856802626E0,-1.223029938E0,-1.690897822E-2,2.223466693E0
7.257486250E-1,1.423132914E0,-1.825085574E0,1.544382970E0,2.782330570E0
7.356926250E-1,1.737530975E0,-1.391848994E0,1.264252809E0,2.560193875E0
7.456366250E-1,2.240980190E0,3.463077790E-1,1.066472493E0,2.505850129E0
7.555806250E-1,2.235411302E0,2.131952714E0,2.672908455E-1,3.100601629E0
7.655246250E-1,2.979713030E0,4.422127576E0,-6.710007405E-1,5.374397085E0
7.754686250E-1,3.601386074E0,6.324841370E0,3.865103102E-1,7.288551998E0
7.854126250E-1,3.907782513E0,4.807343897E0,5.779007882E-1,6.222161107E0
7.953566250E-1,3.567412582E0,3.408333233E0,9.245260710E-1,5.019752625E0
8.053006250E-1,3.350981988E0,2.470391310E0,1.542822933E0,4.439844154E0
8.152446250E-1,3.323121175E0,2.172196761E0,1.578786233E0,4.272486288E0
8.251886250E-1,2.499426829E0,2.066435832E0,3.535492632E-1,3.262252076E0
8.351326250E-1,9.765855861E-1,2.707614604E0,-1.906313340E0,3.452379875E0
8.450766250E-1,-3.852259693E-1,4.102460881E0,-4.939489802E0,6.432506807E0
8.550206250E-1,-8.424849576E-1,3.695950170E0,-4.228680632E0,5.679046438E0
8.649646250E-1,1.461214806E-1,1.782295066E0,-1.591742786E0,2.394070234E0
8.749086250E-1,3.703021207E-1,4.199967295E-1,8.308951914E-2,5.660607579E-1
8.848526250E-1,-6.136287376E-2,-1.106983173E0,1.432117599E0,1.811115117E0
8.947966250E-1,-3.554061927E-1,-2.467896304E0,1.523003796E-1,2.498003429E0
9.047406250E-1,-1.852318104E0,-1.967448319E0,-1.398640535E0,3.042717633E0
9.146846250E-1,-2.265115303E0,-8.428930932E-1,-1.427648865E0,2.807026431E0
9.246286250E-1,-2.680285595E0,-2.150080252E0,-1.805626772E0,3.881631616E0
9.345726250E-1,-2.031081520E0,-3.245483599E0,8.940628083E-1,3.931641418E0
9.445166250E-1,-1.471363818E0,-3.295735155E0,3.193307140E0,4.819127742E0
9.544606250E-1,-2.059865901E0,-4.382830194E0,3.684418583E0,6.084996987E0
9.644046250E-1,-2.491529872E0,-5.400669640E0,3.356723369E0,6.829534790E0
9.743486250E-1,-2.330450337E0,-5.930068359E0,3.249231080E0,7.152217288E0
9.842926250E-1,-2.547933576E0,-5.868403038E0,2.398384019E0,6.832449461E0
9.942366250E-1,-1.347721958E0,-5.372794794E0,2.503846447E0,6.078858890E0
1.004180625E0,-5.292307578E-1,-4.777462286E0,9.858744729E-1,4.906748370E0
1.014124625E0,-7.735413880E-1,-3.829042153E0,2.170521899E-1,3.912421468E0
1.024068625E0,-9.034740481E-1,-3.784170620E0,4.196722090E-1,3.913098185E0
1.034012625E0,-1.908967537E0,-5.278207895E0,3.711870968E-1,5.625070266E0
1.043956625E0,-1.751786925E0,-6.398605165E0,-5.987190686E-2,6.634341726E0
1.053900625E0,-2.935616253E0,-6.756670525E0,3.646978569E-1,7.375869027E0
1.063844625E0,-3.800318876E0,-6.810295925E0,-6.767311580E-1,7.828187479E0
1.073788625E0,-3.081821203E0,-7.590336712E0,-2.610951358E0,8.598133537E0
1.083732625E0,-3.096965199E0,-7.454220548E0,-1.695715343E0,8.248154215E0
1.093676625E0,-2.084208152E0,-7.890607608E0,8.147726637E-1,8.201796543E0
1.103620625E0,3.855021917E0,-6.580098061E0,-6.387042296E0,9.947521991E0
1.113564625E0,1.704316364E1,-3.433550520E0,-2.168845488E1,2.779654243E1
1.123508625E0,1.444129184E1,-5.513717954E0,-1.030958377E1,1.858062198E1
1.133452625E0,7.445957263E0,-7.301243938E0,-5.686406697E0,1.187794863E1
1.143396625E0,2.592468017E0,-3.882275789E0,-1.025431033E0,4.779588322E0
1.153340625E0,-2.984252223E-1,2.357193659E1,7.212286738E0,2.465243056E1
1.163284625E0,-5.911726813E0,4.858702214E1,1.571621991E1,5.140668053E1
1.173228625E0,-8.265483128E0,3.410391336E1,4.975133843E0,3.544216521E1
1.183172625E0,-5.889117969E0,1.524807194E1,-1.248618962E0,1.639342727E1
1.193116625E0,-3.212175520E0,5.573046727E0,-1.178647525E0,6.539581897E0
1.203060625E0,-1.108808820E0,2.342242563E-1,-2.495679349E-2,1.133552311E0
1.213004625E0,1.717856410E-1,-2.411741983E0,5.905699503E-1,2.488932013E0
1.222947625E0,6.542509528E-1,-4.080772973E0,1.146713249E0,4.289021292E0
1.232891625E0,7.643004484E-1,-5.476077672E0,1.536388072E0,5.738647067E0
1.242835625E0,9.662519480E-1,-6.327889524E0,2.187923724E0,6.764823639E0
1.252779625E0,1.090515294E0,-5.970474958E0,2.682779432E0,6.635744142E0
1.262723625E0,7.108886185E-1,-4.858325186E0,1.585683316E0,5.159755597E0
1.272667625E0,1.665622867E-1,-3.635608658E0,9.011430556E-1,3.749326889E0
1.282611625E0,-2.718191851E-1,-2.284817643E0,9.893351474E-1,2.504608026E0
1.292555625E0,-9.353966296E-1,-1.063862296E0,8.075586614E-1,1.630619769E0
1.302499625E0,-1.691058621E0,-7.815388441E-2,-1.354098201E-2,1.692917791E0
1.312443625E0,-2.466211721E0,4.146816105E-1,-1.385137853E0,2.858805338E0
1.322387625E0,-3.210238630E0,3.569877183E-1,-2.609056275E0,4.152137635E0
1.332331625E0,-3.645120909E0,-8.240948796E-2,-2.788668415E0,4.590247193E0
1.342275625E0,-3.143683867E0,-8.366295558E-1,-2.733251721E0,4.248924833E0
1.352219625E0,-2.296789524E0,-1.411112062E0,-2.511835206E0,3.684534634E0
1.362163625E0,-2.469619186E0,-1.418978906E0,-1.071349071E0,3.043075564E0
1.372107625E0,-2.662663841E0,-1.370773875E0,-3.180019927E-1,3.011631620E0
1.382051625E0,-2.578390845E0,-1.254813064E0,-6.334662938E-1,2.936653661E0
1.391995625E0,-2.287783350E0,-1.146804466E0,-1.324346398E0,2.881493801E0
1.401939625E0,-1.801368537E0,-1.215240862E0,-1.974493629E0,2.936045648E0
1.411883625E0,-1.423241526E0,-1.188609134E0,-1.599735637E0,2.448992083E0
1.421827625E0,-1.414464270E0,-1.077367610E0,-6.427692139E-1,1.890656606E0
1.431771625E0,-1.366192143E0,-1.158038721E0,-3.674200282E-2,1.791335989E0
1.441715625E0,-1.237607193E0,-1.086781043E0,2.686984165E-1,1.668820973E0
1.451659625E0,-1.014061414E0,-1.314564006E0,2.410963427E-1,1.677655067E0
1.461603625E0,-7.004983355E-1,-2.028894954E0,3.111915945E-1,2.168859806E0
1.471547625E0,-3.883282095E-1,-2.852995096E0,5.679207605E-1,2.934776619E0
1.481491625E0,-1.641810447E-2,-3.589510379E0,6.828477842E-1,3.653920554E0
1.491435625E0,3.319057944E-1,-4.271557680E0,4.628386939E-1,4.309360292E0
1.501379625E0,9.913079980E-1,-4.735966351E0,1.587997060E-1,4.841207099E0
1.511323625E0,1.948084387E0,-4.822102854E0,4.100827754E-2,5.200902844E0
1.521267625E0,3.136633587E0,-4.415608515E0,2.069022641E-2,5.416317652E0
1.531211625E0,4.451482353E0,-3.242507951E0,-9.518455781E-2,5.508049841E0
1.541155625E0,5.724222395E0,-9.286816871E-1,6.519689307E-2,5.799432932E0
1.551099625E0,6.779872277E0,2.946616035E0,8.486338896E-1,7.441061324E0
1.561043625E0,7.046977766E0,8.595394145E0,1.617949714E0,1.123202820E1
1.570987625E0,5.861059520E0,1.513446288E1,2.553432298E0,1.642936401E1
1.580931625E0,4.010317533E0,1.996869754E1,4.149473079E0,2.078580417E1
1.590875625E0,3.289190952E0,2.140359256E1,5.690836548E0,2.239013560E1
1.600819625E0,4.148117695E0,1.916385286E1,6.305513983E0,2.059659301E1
1.610763625E0,5.140762659E0,1.506108032E1,5.274370367E0,1.676551711E1
1.620707625E0,4.489172920E0,1.126981469E1,3.677423851E0,1.267615253E1
1.630651250E0,2.550651947E0,7.978492429E0,2.879316337E0,8.857348890E0
1.640595250E0,8.607892276E-1,5.489708117E0,2.798020744E0,6.221476785E0
1.650539250E0,-2.641560070E-1,3.585950595E0,2.908444242E0,4.624701933E0
1.660483250E0,-9.559039843E-1,1.936114844E0,2.802292719E0,3.537674038E0
1.670427250E0,-1.302343472E0,3.798158330E-1,2.455116044E0,2.804987233E0
1.680371250E0,-1.420400218E0,-1.221624268E0,2.125903185E0,2.833613767E0
1.690315250E0,-1.399708676E0,-2.861765335E0,1.831576568E0,3.674718756E0
1.700259250E0,-1.331536719E0,-4.362251503E0,1.547313595E0,4.816264898E0
1.710203250E0,-1.236480581E0,-5.726530291E0,1.347049967E0,6.011370643E0
1.720147250E0,-1.136453871E0,-6.930466146E0,1.254285060E0,7.134151626E0
1.730091250E0,-1.081594270E0,-7.845448977E0,1.141590503E0,8.001508901E0
1.740035250E0,-1.085201125E0,-8.548180218E0,1.034229777E0,8.678633403E0
1.749979250E0,-1.123689545E0,-9.056763434E0,9.188876009E-1,9.172349563E0
1.759923250E0,-1.205625847E0,-9.453771250E0,8.259110248E-1,9.566057367E0
1.769867250E0,-1.334022809E0,-9.664400237E0,7.451165378E-1,9.784449267E0
1.779811250E0,-1.477289825E0,-9.802374061E0,7.275760603E-1,9.939732863E0
1.789755250E0,-1.658743984E0,-9.946719596E0,7.438370939E-1,1.011147645E1
1.799699250E0,-1.852352895E0,-9.984515998E0,7.625237719E-1,1.018347747E1
1.809643250E0,-1.997053064E0,-9.887590213E0,7.833352549E-1,1.011762202E1
1.819587250E0,-2.130835896E0,-9.819642059E0,7.195150157E-1,1.007390359E1
1.829531250E0,-2.263107808E0,-9.814935050E0,6.327540299E-1,1.009232306E1
1.839475250E0,-2.346279188E0,-9.777247406E0,6.011708792E-1,1.007278508E1
1.849419250E0,-2.450232742E0,-9.785458651E0,5.747802023E-1,1.010392071E1
1.859363250E0,-2.539179710E0,-9.791239209E0,5.371533696E-1,1.012937967E1
1.869307250E0,-2.615515695E0,-9.817238853E0,4.571444560E-1,1.016995979E1
1.879251250E0,-2.604679635E0,-9.784378086E0,3.364957125E-1,1.013072751E1
1.889195250E0,-2.299989413E0,-9.321501385E0,4.694309910E-1,9.612528534E0
1.899139250E0,-2.274677547E0,-8.910405287E0,9.272234646E-1,9.242793067E0
1.909083250E0,-2.000541220E0,-8.690554656E0,1.099802792E0,8.985403251E0
1.919027250E0,-1.120539211E0,-7.937256110E0,9.692836563E-1,8.074351583E0
1.928971250E0,2.312141389E0,2.351854801E0,-4.601092136E-1,3.330002897E0
1.938915250E0,7.538578328E0,2.778455142E1,-3.568400177E0,2.900939400E1
1.948859250E0,8.921388112E0,5.441381932E1,-5.517603428E0,5.541569134E1
1.958803250E0,7.146844701E0,5.888062430E1,-4.363672961E0,5.947307751E1
1.968747250E0,4.429603826E0,4.094788281E1,9.615502019E-1,4.119799844E1
1.978691250E0,1.885062073E0,2.482845178E1,4.106817641E0,2.523631170E1
1.988635250E0,2.012168701E-1,1.549083664E1,2.617989944E-1,1.549435532E1
1.998579250E0,-9.314401111E-1,9.635334313E0,-1.166811299E0,9.750317770E0
2.008523250E0,-2.100207450E0,4.620633531E0,4.628342500E0,6.868964977E0
2.018467250E0,-1.529320104E0,1.506365544E0,3.732162561E0,4.305461010E0
2.028411250E0,-1.892732012E-1,-2.924122381E-1,2.147353111E0,2.175420567E0
2.038355250E0,1.794408450E0,-1.689237213E0,7.240601295E-1,2.568596332E0
2.048299250E0,4.154937302E0,-2.983944075E0,-1.076139037E0,5.227379980E0
2.058243250E0,4.338890707E0,-4.238812687E0,-4.878655955E0,7.784265507E0
2.068187250E0,2.274926931E0,-5.176627725E0,-4.849174293E0,7.448977009E0
2.078131250E0,8.595915717E-1,-5.920383031E0,-2.897304711E0,6.647120241E0
2.088075250E0,7.447320834E-2,-6.673162345E0,-1.749766420E0,6.899153895E0
2.098019250E0,-4.710873610E-1,-7.549169975E0,-1.297870206E0,7.674396242E0
2.107963250E0,-8.197021589E-1,-8.481648844E0,-1.304166487E0,8.620390302E0
2.117907250E0,-1.099985371E0,-9.603076978E0,-2.573763651E0,1.000266537E1
2.127851250E0,-1.113658939E0,-1.099244032E1,-7.365570327E0,1.327876525E1
2.137795250E0,-1.114765817E0,-1.152444105E1,-9.186595595E0,1.478001972E1
2.147739250E0,-1.251007257E0,-1.105448630E1,-6.968516318E0,1.312733431E1
2.157683250E0,-1.353956844E0,-1.069268866E1,-4.483042699E0,1.167323699E1
2.167627250E0,-1.379103234E0,-1.049170115E1,-2.783745351E0,1.094198139E1
2.177571250E0,-1.343507870E0,-1.029188074E1,-1.741534564E0,1.052429404E1
2.187515250E0,-1.296154048E0,-1.012380954E1,-1.179792702E0,1.027440732E1
2.197459250E0,-1.249009848E0,-1.003986808E1,-9.230135424E-1,1.015927806E1
2.207403250E0,-1.197155278E0,-1.001984721E1,-8.298364069E-1,1.012517395E1
2.217347250E0,-1.128181815E0,-1.002949161E1,-8.513278480E-1,1.012858605E1
2.227291250E0,-1.061149261E0,-1.004361498E1,-8.765995140E-1,1.013748816E1
2.237235250E0,-1.014705412E0,-1.007839188E1,-8.768053360E-1,1.016722172E1
2.247179250E0,-9.843194059E-1,-1.012147182E1,-9.386400801E-1,1.021244935E1
2.257123250E0,-9.427596628E-1,-1.018399025E1,-9.401980707E-1,1.027065848E1
2.267067250E0,-9.384482183E-1,-1.022481200E1,-8.229099414E-1,1.030071096E1
2.277011250E0,-9.348522538E-1,-1.030055216E1,-4.995966303E-1,1.035494666E1
2.286955250E0,-1.042887822E0,-1.020199500E1,2.846772489E-1,1.025911098E1
2.296899250E0,-1.558619479E0,-9.168878531E0,1.520715634E0,9.423916608E0
2.306843250E0,-2.263274454E0,-8.049719117E0,2.690080850E0,8.783901416E0
2.316787250E0,-3.060649312E0,-7.013476728E0,3.982528056E0,8.626526517E0
2.326731250E0,-2.956645179E0,-6.135217336E0,5.390767965E0,8.685794249E0
2.336675250E0,-1.978330572E0,-5.461912208E0,8.313974673E0,1.014240857E1
2.346619250E0,1.010318685E0,2.545902838E0,1.065783107E1,1.100416867E1
2.356563250E0,6.034233583E0,4.538520847E1,1.362780380E1,4.776972011E1
2.366507250E0,2.616293374E0,7.034486242E1,1.048080778E1,7.116945968E1
2.376451250E0,-5.656619811E0,6.732406451E1,-1.117929891E0,6.757053187E1
2.386395250E0,-5.909151700E0,4.545489793E1,2.063675362E0,4.588381605E1
2.396339250E0,-1.950355153E0,1.696756966E1,5.905732833E0,1.807152417E1
2.406283250E0,-2.620751292E-2,5.567060348E0,3.059830409E0,6.352590801E0
2.416227250E0,2.936755291E-1,1.895529320E0,1.415964081E0,2.384162536E0
2.426171250E0,1.536093957E0,-1.658666800E0,6.742073536E-1,2.359092147E0
2.436115250E0,4.085913261E0,-5.043628128E0,2.462861851E-1,6.495654605E0
2.446059250E0,6.375873529E0,-7.480352924E0,-9.204885685E-1,9.871916852E0
2.456003250E0,6.522769620E0,-8.087765779E0,-2.424536276E0,1.066943555E1
2.465947250E0,4.533172925E0,-7.528549769E0,-2.884285301E0,9.249206457E0
2.475891250E0,2.505520213E0,-6.799136513E0,-2.733673890E0,7.744602107E0
2.485835250E0,1.227922011E0,-6.618915972E0,-2.442407706E0,7.161228701E0
2.495779250E0,5.524079512E-1,-6.972001843E0,-2.186932475E0,7.327798980E0
2.505723250E0,1.038056195E-1,-7.428678156E0,-1.979614620E0,7.688622035E0
2.515667250E0,-2.965096745E-1,-7.897571642E0,-1.796987364E0,8.104857766E0
2.525611250E0,-6.460508175E-1,-8.447771831E0,-1.579915769E0,8.618489682E0
2.535555250E0,-9.439554915E-1,-9.022460743E0,-1.337954038E0,9.169840284E0
2.545499250E0,-1.131950930E0,-9.496549480E0,-1.137216859E0,9.631148795E0
2.555443250E0,-1.210788939E0,-9.808710689E0,-1.143297964E0,9.949067568E0
2.565387250E0,-1.115926928E0,-1.033712064E1,-4.192498646E0,1.121063785E1
2.575331250E0,-1.177343304E0,-1.109911458E1,-9.966551013E0,1.496357647E1
2.585275250E0,-1.334825778E0,-1.099076217E1,-8.319849955E0,1.384913413E1
2.595219250E0,-1.317472411E0,-1.052348193E1,-4.501802906E0,1.152152919E1
2.605163250E0,-1.257643262E0,-1.016286309E1,-2.300510108E0,1.049560858E1
2.615107250E0,-1.181344846E0,-9.987150754E0,-1.286792071E0,1.013876667E1
2.625051000E0,-1.078971502E0,-9.919918299E0,-1.092639953E0,1.003806857E1
2.634995000E0,-9.469871266E-1,-9.921239769E0,-1.068511710E0,1.002344753E1
2.644939000E0,-8.286291761E-1,-9.946260005E0,-1.017751300E0,1.003247388E1
2.654883000E0,-6.888750941E-1,-9.967706423E0,-8.918069525E-1,1.003120331E1
2.664827000E0,-5.496455804E-1,-9.970302587E0,-7.958401103E-1,1.001710564E1
2.674771000E0,-4.248364699E-1,-1.000911991E1,-7.094368279E-1,1.004322000E1
2.684715000E0,-3.446448308E-1,-1.003514704E1,-5.371831173E-1,1.005542251E1
2.694659000E0,-2.863904831E-1,-1.004393891E1,-1.873595537E-1,1.004976776E1
2.704603000E0,-3.941496974E-1,-9.660629953E0,4.672510028E-1,9.679950855E0
2.714547000E0,-8.628709826E-1,-8.907198674E0,1.258215266E0,9.036915414E0
2.724491000E0,-1.598217115E0,-8.296848178E0,1.994847640E0,8.681670619E0
2.734435000E0,-2.349293135E0,-7.606646351E0,2.924631089E0,8.481374532E0
2.744379000E0,-3.147279028E0,-6.453390067E0,4.700768452E0,8.581889808E0
2.754323000E0,-4.053767315E0,-4.412853892E0,7.103785805E0,9.293550542E0
2.764267000E0,-2.110163942E0,1.692449089E1,9.526634574E0,1.953581199E1
2.774211000E0,-2.995201135E-1,5.589914307E1,1.773729245E1,5.864652975E1
2.784155000E0,-3.902291393E-1,6.994974968E1,1.309127733E1,7.116530968E1
2.794099000E0,-4.005828041E0,5.524265044E1,3.487466526E0,5.549738290E1
2.804043000E0,-5.861145474E0,2.888922845E1,8.023651645E-1,2.948871541E1
2.813987000E0,-4.751675188E0,1.553377859E1,-2.354499204E0,1.641402939E1
2.823931000E0,-3.755534174E0,9.064986373E0,-3.062466334E0,1.027894522E1
2.833875000E0,-3.190544330E0,5.064684536E0,-2.921231810E0,6.660645454E0
2.843819000E0,-2.381578537E0,2.518826137E0,-2.854267742E0,4.490350296E0
2.853763000E0,-1.773342101E0,8.068970490E-1,-1.623075968E0,2.535784031E0
2.863707000E0,-1.621540489E0,-4.128683889E-1,-1.023914119E0,1.961696711E0
2.873652000E0,-1.195511187E0,-1.133938252E0,-1.058633131E0,1.958511441E0
2.883595000E0,-5.428949333E-1,-1.781525572E0,-9.038966556E-1,2.070168456E0
2.893539000E0,6.456834662E-1,-2.760378708E0,-8.086915594E-1,2.947978933E0
2.903484000E0,2.487011144E0,-4.264946233E0,-5.790076661E-1,4.970939617E0
2.913428000E0,3.396128047E0,-5.716780643E0,-4.218216455E-1,6.662822235E0
2.923372000E0,3.489199933E0,-7.066827309E0,-3.517193770E-1,7.889123583E0
2.933316000E0,2.979100242E0,-8.260023583E0,-2.391002494E-1,8.784087703E0
2.943260000E0,2.118244210E0,-9.222600410E0,-1.096703768E-1,9.463368557E0
2.953204000E0,1.318750905E0,-9.965658728E0,-1.121402407E-1,1.005316036E1
2.963148000E0,6.844882205E-1,-1.050826046E1,-4.038437232E-1,1.053827081E1
2.973092000E0,2.408137394E-1,-1.091164350E1,-9.421958450E-1,1.095489334E1
2.983036000E0,7.457794659E-3,-1.143041782E1,-1.512054884E0,1.152999641E1
2.992980000E0,-2.481771746E-1,-1.174906535E1,-1.916199228E0,1.190688658E1
3.002924000E0,-4.319993091E-1,-1.170369213E1,-2.065683296E0,1.189243794E1
3.012868000E0,-5.895852792E-1,-1.124947223E1,-1.935470481E0,1.142997297E1
3.022812000E0,-1.040497115E0,-1.047698604E1,-1.615416700E0,1.065173422E1
3.032756000E0,-1.346676622E0,-9.956257575E0,-1.397690363E0,1.014367493E1
3.042700000E0,-1.524213438E0,-9.817707800E0,-1.472949291E0,1.004391321E1
3.052644000E0,-1.731746471E0,-9.770829502E0,-1.561592495E0,1.004522902E1
3.062588000E0,-1.889591034E0,-9.758634549E0,-1.687339645E0,1.008209391E1
3.072532000E0,-1.973379296E0,-9.864280872E0,-2.073931232E0,1.027129270E1
3.082476000E0,-2.033027620E0,-9.990084887E0,-2.688267921E0,1.054332878E1
3.092420000E0,-2.083799139E0,-9.999121174E0,-2.886690845E0,1.061402973E1
3.102364000E0,-2.134445967E0,-9.982044965E0,-2.744513458E0,1.057021454E1
3.112308000E0,-2.197763126E0,-9.913604475E0,-2.313476016E0,1.041450372E1
3.122252000E0,-2.310237828E0,-9.782735603E0,-1.513399305E0,1.016511152E1
3.132196000E0,-2.344712134E0,-9.414297867E0,-7.072223412E-1,9.727632947E0
3.142140000E0,-2.276555819E0,-8.754245453E0,1.138347638E-1,9.046130565E0
3.152084000E0,-1.303468038E0,-7.916533577E0,1.487700500E0,8.159888822E0
3.162028000E0,2.987723715E0,-6.105808765E0,4.462485058E0,8.131492272E0
3.171972000E0,8.999530887E0,-4.922508903E0,7.909499377E0,1.295310119E1
3.181916000E0,1.173304164E1,-3.236744351E0,1.021902794E1,1.589242940E1
3.191860000E0,1.729374840E1,2.328976634E1,1.208761329E1,3.142606156E1
3.201804000E0,1.066034186E1,6.605989181E1,1.471326922E1,6.851300961E1
3.211748000E0,-4.511720368E0,6.948171515E1,5.144269819E0,6.981781917E1
3.221692000E0,-5.457300509E0,5.491646469E1,3.706813858E-1,5.518820188E1
3.231636000E0,-5.697984476E-1,2.218108513E1,8.448067407E-1,2.220447942E1
3.241580000E0,7.765786511E-1,7.510598817E0,-5.638616234E-1,7.571664871E0
3.251524000E0,9.709919934E-1,2.754584118E0,-9.921669540E-1,3.084631968E0
3.261468000E0,1.055333109E0,2.059441978E-1,-2.020913066E0,2.289154998E0
3.271412000E0,1.247426569E0,-1.671220188E0,-1.783526489E0,2.744087589E0
3.281356000E0,8.991596800E-1,-3.827842305E0,1.187625632E0,4.107471179E0
3.291300000E0,2.051337591E0,-5.670397021E0,7.294066773E-1,6.073995586E0
3.301244000E0,3.760006417E0,-6.956274002E0,-2.626745418E-1,7.911788304E0
3.311188000E0,4.202516681E0,-7.461273460E0,-1.218164982E0,8.649605426E0
3.321132000E0,3.318974622E0,-7.655348979E0,-1.361250515E0,8.454168410E0
3.331076000E0,2.035118145E0,-7.796296113E0,-1.043598770E0,8.124840757E0
3.341020000E0,9.486553372E-1,-7.994915503E0,-6.514266014E-1,8.077312515E0
3.350964000E0,1.239710583E-1,-8.258727255E0,-3.708315861E-1,8.267978034E0
3.360908000E0,-6.110926540E-1,-8.555408546E0,-2.144045158E-1,8.579884551E0
3.370852000E0,-1.264903604E0,-9.091808136E0,-2.422056508E-1,9.182571529E0
3.380797000E0,-1.436640421E0,-9.454229087E0,-3.162804993E-1,9.567989166E0
3.390741000E0,-1.468854047E0,-9.822363353E0,-5.030968467E-1,9.944318000E0
3.400685000E0,-1.451636190E0,-1.009336543E1,-6.856877768E-1,1.022024662E1
3.410629000E0,-1.342837194E0,-1.014981211E1,-5.584896768E-1,1.025347786E1
3.420573000E0,-1.213760932E0,-1.001216865E1,4.483644962E-3,1.008547256E1
3.430517000E0,-1.102141459E0,-9.852166611E0,5.469240669E-1,9.928697229E0
3.440461000E0,-1.028425611E0,-9.811043143E0,7.337601487E-1,9.892048865E0
3.450405000E0,-9.998464677E-1,-9.853886862E0,7.620022003E-1,9.933751889E0
3.460349000E0,-9.339427925E-1,-9.834294012E0,8.230950788E-1,9.912773242E0
3.470293000E0,-8.980285361E-1,-9.813358641E0,8.752545083E-1,9.893155893E0
3.480237000E0,-8.814645436E-1,-9.796680043E0,9.299645662E-1,9.880119113E0
3.490181000E0,-8.345496281E-1,-9.779541854E0,9.466313966E-1,9.860629947E0
3.500125000E0,-8.016159169E-1,-9.780024834E0,9.198559729E-1,9.855841356E0
3.510069000E0,-7.798764807E-1,-9.793372858E0,9.133187127E-1,9.866737572E0
3.520013000E0,-7.555006812E-1,-9.832456816E0,8.738945921E-1,9.900084852E0
3.529957000E0,-7.340667620E-1,-9.855436374E0,7.167739872E-1,9.908695428E0
3.539901000E0,-6.849095124E-1,-9.747762237E0,5.660666084E-1,9.788176596E0
3.549845000E0,-5.102534732E-1,-9.252611829E0,9.048215389E-1,9.310740372E0
3.559789000E0,-4.139909812E-1,-8.916982820E0,1.288456188E0,9.019095880E0
3.569733000E0,-3.521826958E-1,-8.556525364E0,1.698816122E0,8.730643457E0
3.579677000E0,-2.210820909E-1,-7.865075156E0,2.310683970E0,8.200460043E0
3.589621000E0,9.465180337E-2,-6.017079021E0,2.350531576E0,6.460588023E0
3.599565000E0,-9.402433135E-1,1.629448264E1,1.975715697E0,1.644073217E1
3.609509000E0,-1.408995954E0,6.119660819E1,6.253201869E0,6.153139570E1
3.619453000E0,3.968378379E0,7.005201515E1,6.042976924E0,7.042407559E1
3.629397875E0,1.190299681E1,5.917134786E1,3.906689084E0,6.048298902E1
3.639341875E0,6.907899402E0,2.970349299E1,4.467779127E0,3.082170696E1
3.649285875E0,2.100703001E0,1.381766290E1,1.096407752E0,1.401937484E1
3.659229875E0,1.519555400E0,7.296510032E0,-1.335550248E0,7.571776656E0
3.669173875E0,6.589262402E0,3.636158881E0,-6.991788236E0,1.027254268E1
3.679117875E0,1.227445756E1,-1.894054652E0,-5.298660285E0,1.350279794E1
3.689061875E0,9.326406614E0,-3.787979497E0,-7.714253830E0,1.268228533E1
3.699005875E0,2.682644946E0,-2.358179149E0,-1.289231529E1,1.337794403E1
3.708949875E0,-1.258248303E0,-1.934087030E0,-9.299678991E0,9.581644471E0
3.718893875E0,-2.957480162E0,-2.413880310E0,-4.583753972E0,5.965258380E0
3.728837875E0,-2.932681243E0,-3.308940507E0,-1.571954931E0,4.692627074E0
3.738781875E0,-2.561931810E0,-4.277411912E0,-3.679279319E-1,4.999511799E0
3.748725875E0,-2.394091578E0,-5.360584638E0,-1.425749981E-1,5.872637378E0
3.758669875E0,-2.126863152E0,-6.624042810E0,5.059124272E-2,6.957301883E0
3.768613875E0,-1.886146293E0,-7.658418183E0,4.447509170E-2,7.887388347E0
3.778557875E0,-1.768309403E0,-8.468823561E0,-1.206713283E-1,8.652309069E0
3.788501875E0,-1.721436368E0,-9.114596490E0,-1.639775616E-1,9.277181737E0
3.798445875E0,-1.740357519E0,-9.567109001E0,-1.098603930E-1,9.724735895E0
3.808389875E0,-1.758078968E0,-9.804936896E0,8.396895865E-2,9.961660503E0
3.818333875E0,-1.673434820E0,-1.000111975E1,5.043837458E-1,1.015269340E1
3.828278875E0,-1.855742526E0,-1.027504076E1,6.875249720E-1,1.046388711E1
3.838222875E0,-2.481325311E0,-1.084603189E1,7.231555653E-1,1.114972363E1
3.848166875E0,-2.468293914E0,-1.132911598E1,1.000511223E0,1.163797089E1
3.858110875E0,-2.698646729E0,-1.134363696E1,1.019663778E0,1.170472160E1
3.868054875E0,-2.793852264E0,-1.150661640E1,8.954028440E-1,1.187474537E1
3.877998875E0,-2.844721286E0,-1.179455435E1,9.979980898E-1,1.217374025E1
3.887942875E0,-2.919328249E0,-1.177766291E1,1.091398004E0,1.218306081E1
3.897886875E0,-3.119405935E0,-1.163961249E1,1.102165067E0,1.210066280E1
3.907830875E0,-3.570671820E0,-1.146525904E1,8.809654838E-1,1.204067948E1
3.917774875E0,-3.065665931E0,-1.115797266E1,1.014323516E0,1.161583030E1
3.927718875E0,-3.154928940E0,-1.077215115E1,8.854122913E-1,1.125951917E1
3.937662875E0,-3.179554196E0,-1.031449543E1,9.412935466E-1,1.083440881E1
3.947606875E0,-3.148953963E0,-9.791076071E0,1.410039682E0,1.038119904E1
3.957550875E0,-3.085730066E0,-9.316242399E0,1.847530696E0,9.986364311E0
3.967494875E0,-3.120497026E0,-9.007639221E0,1.929502813E0,9.726152740E0
3.977438875E0,-3.114292838E0,-8.846021011E0,2.524587983E0,9.712077640E0
3.987382875E0,-3.774663925E0,-8.457052531E0,3.800304258E0,1.001060127E1
3.997326875E0,-5.206018170E0,-7.515799330E0,5.718174620E0,1.078366291E1
4.007270875E0,-5.658085708E0,-4.741900690E0,7.462661004E0,1.049718368E1
4.017214875E0,-4.874678679E0,1.412450139E1,8.448016244E0,1.716487722E1
4.027158875E0,-4.120983983E0,5.475803789E1,7.857677844E0,5.547223020E1
4.037102875E0,2.140264824E0,7.037701743E1,3.776702557E0,7.051077079E1
4.047046875E0,1.050547719E1,6.195828521E1,6.012867272E-1,6.284549071E1
4.056990875E0,1.246943881E1,3.698297944E1,-4.609307474E-1,3.903127117E1
4.066934875E0,1.192051390E1,1.882293797E1,-1.031632794E1,2.455256132E1
4.076878875E0,9.945425023E0,8.903313784E0,-2.426569937E1,2.769484864E1
4.086822875E0,4.178116542E0,4.985281686E0,-1.952291283E1,2.057799351E1
4.096766875E0,1.072427736E0,1.056279627E0,-5.263005134E0,5.474034247E0
4.106710875E0,6.437718945E0,-3.199508697E0,1.307039955E0,7.306807412E0
4.116654875E0,1.079788241E1,-6.362976326E0,1.178656734E0,1.258852509E1
4.126598875E0,7.273801786E0,-6.085579737E0,2.922134328E0,9.923776609E0
4.136542875E0,4.290876296E0,-5.607230135E0,2.485722710E0,7.485416926E0
4.146486875E0,2.054648138E0,-5.256169739E0,1.073737074E0,5.744720237E0
4.156430875E0,7.941337466E-1,-5.281243184E0,3.174617100E-1,5.350042983E0
4.166374875E0,3.165327336E-1,-5.772629154E0,-3.727490343E-2,5.781421083E0
4.176318875E0,6.660899565E-2,-6.312167530E0,-1.736582849E-1,6.314907195E0
4.186262875E0,-3.042078263E-1,-6.748645222E0,-1.716268891E-1,6.757677894E0
4.196206875E0,-7.249720028E-1,-7.270435544E0,-1.121051574E-1,7.307351433E0
4.206150875E0,-1.053174609E0,-7.858481836E0,2.191426791E-2,7.928770003E0
4.216094875E0,-1.314196509E0,-8.494596334E0,1.088541420E-1,8.596343906E0
4.226038875E0,-1.541627178E0,-9.001975023E0,1.226874483E-1,9.133850277E0
4.235982875E0,-1.720095601E0,-9.405586100E0,1.062287148E-1,9.562168337E0
4.245926875E0,-1.825381151E0,-9.651479060E0,1.026092792E-1,9.823115242E0
4.255870875E0,-1.919395316E0,-9.779151844E0,9.719709635E-2,9.966209733E0
4.265814875E0,-1.953454616E0,-9.848472340E0,2.469887463E-1,1.004337572E1
4.275758875E0,-1.951311027E0,-9.837167333E0,4.159838219E-1,1.003745577E1
4.285702875E0,-1.947096646E0,-9.801397576E0,4.338739629E-1,1.000234105E1
4.295646875E0,-1.906085591E0,-9.832538677E0,3.574438743E-1,1.002196314E1
4.305590875E0,-1.886035050E0,-9.849748203E0,4.597806732E-1,1.003922637E1
4.315534875E0,-1.822149541E0,-9.867695646E0,6.094997994E-1,1.005301628E1
4.325478875E0,-1.774448541E0,-9.941777530E0,7.310072064E-1,1.012531380E1
4.335422875E0,-1.718614063E0,-1.003257777E1,7.925585067E-1,1.020952497E1
4.345366875E0,-1.650872169E0,-1.008781291E1,8.487888408E-1,1.025718240E1
4.355310875E0,-1.533565329E0,-1.014545827E1,9.578218710E-1,1.030531750E1
4.365254875E0,-1.132045655E0,-1.000500464E1,1.210595834E0,1.014136024E1
4.375198875E0,-5.659623818E-1,-9.163206732E0,1.734446715E0,9.343071039E0
4.385142875E0,-1.090656285E-1,-8.435966302E0,2.180527289E0,8.713903948E0
4.395086875E0,4.052659853E-1,-7.623668180E0,2.660589541E0,8.084756876E0
4.405030875E0,9.689745578E-1,-6.544263400E0,2.994673716E0,7.261843141E0
4.414974875E0,2.294504286E0,-3.266480951E0,2.689818603E0,4.813498918E0
4.424918875E0,4.569361051E0,1.686925458E1,3.553494455E0,1.783474512E1
4.434862875E0,4.475900618E0,4.988247043E1,7.831206329E0,5.069144243E1
4.444806875E0,2.760690365E0,6.759027187E1,4.228343832E0,6.777864822E1
4.454750875E0,1.191736517E0,4.979281157E1,-1.148938115E0,4.982032094E1
4.464694875E0,-1.504175761E-1,2.573892641E1,-1.194770930E0,2.576708046E1
4.474638875E0,-2.512457349E0,1.544044066E1,-5.777927901E0,1.667645347E1
4.484582875E0,-5.444017974E0,1.046486944E1,-1.479569508E1,1.892256370E1
4.494526875E0,-4.995196810E0,7.946946115E0,-8.303826245E0,1.253233713E1
4.504470875E0,-4.468533418E0,6.288314399E0,-6.982605330E-1,7.745854159E0
4.514414875E0,-2.057746578E0,3.375540293E0,-1.003070549E1,1.078163466E1
4.524358875E0,1.744090528E0,3.870453304E-1,-9.936720858E0,1.009604265E1
4.534302875E0,2.804454143E0,-2.573177176E0,-5.666015117E0,6.825681733E0
4.544246875E0,1.787854891E0,-4.661134270E0,-2.611248981E0,5.633934596E0
4.554190875E0,4.824214576E-1,-5.557074473E0,-1.684365021E-1,5.580517719E0
4.564134875E0,-7.336861814E-1,-5.779431805E0,1.220406804E0,5.952270169E0
4.574078875E0,-1.437004702E0,-6.017719291E0,1.611710150E0,6.393397969E0
4.584022875E0,-1.598721584E0,-6.714225587E0,1.030447725E0,6.978435243E0
4.593966875E0,-1.564924677E0,-7.401381599E0,2.307427510E-1,7.568532291E0
4.603910875E0,-1.651852601E0,-7.838489621E0,-4.506286112E-1,8.023316191E0
4.613854875E0,-1.586187200E0,-6.947762210E0,-2.065930194E0,7.419936464E0
4.623798875E0,-3.240800272E-1,-4.782538254E0,-6.228976854E0,7.859888846E0
4.633743000E0,-2.963336733E-1,-7.700221682E0,-3.944839243E0,8.656961606E0
4.643687000E0,-7.860517251E-1,-1.040645693E1,-1.049313254E0,1.048872163E1
4.653631000E0,2.024455163E-1,-1.189919846E1,5.291322030E0,1.302420811E1
4.663575000E0,-3.770604788E-1,-1.017685431E1,8.059011219E-1,1.021567496E1
4.673519000E0,-1.024351198E0,-9.705844717E0,2.838238478E-3,9.759750258E0
4.683463000E0,-1.386088171E0,-1.045442865E1,5.584905173E-1,1.056069271E1
4.693407000E0,-1.793382702E0,-1.104737608E1,-3.674318688E-1,1.119802420E1
4.703351000E0,-2.034718196E0,-1.132154150E1,-1.281134890E0,1.157405230E1
4.713295000E0,-2.160492828E0,-1.109572788E1,-2.634764729E0,1.160710522E1
4.723239000E0,-2.214777647E0,-1.084963377E1,-3.955654837E0,1.175869883E1
4.733183000E0,-2.227367579E0,-1.061346356E1,-4.668144497E0,1.180670776E1
4.743127000E0,-2.212776730E0,-1.053568390E1,-4.964317664E0,1.185501860E1
4.753071000E0,-2.193497290E0,-1.045328026E1,-4.790364168E0,1.170598511E1
4.763015000E0,-2.116169179E0,-1.028961669E1,-4.277956288E0,1.134263169E1
4.772959000E0,-1.892307651E0,-1.000006608E1,-3.557306839E0,1.078130706E1
4.782903000E0,-1.586750141E0,-9.408275235E0,-2.700996140E0,9.916087890E0
4.792847000E0,-1.613353218E0,-8.730480030E0,-2.046400348E0,9.111089097E0
4.802791000E0,-1.516825335E0,-8.411584582E0,-1.129139442E0,8.621512058E0
4.812735000E0,-3.681509301E-1,-7.901474074E0,3.677281764E-1,7.918588994E0
4.822679000E0,1.908451082E0,-6.319918599E0,3.974724362E0,7.705971086E0
4.832623000E0,8.768341920E0,9.792215109E-1,1.061793551E1,1.380518922E1
4.842567000E0,1.859701793E1,2.070336978E1,2.184606073E1,3.537978187E1
4.852511000E0,2.031295587E1,3.751018545E1,1.882316484E1,4.662554796E1
4.862455000E0,1.132077317E1,4.146414050E1,3.013538003E0,4.308730978E1
4.872399000E0,-2.151758696E0,3.818711293E1,1.374861956E0,3.827239089E1
4.882343000E0,-9.417899752E0,3.204673659E1,6.006643496E0,3.393773605E1
4.892287000E0,-9.916021714E0,2.087232390E1,1.132459491E1,2.573378794E1
4.902231000E0,-7.073857416E0,8.996695572E0,1.383108927E1,1.795213136E1
4.912175000E0,-5.030609302E0,5.716750238E0,9.420693551E0,1.211353500E1
4.922119000E0,-3.414134840E0,7.148959638E0,3.108879485E0,8.510527144E0
4.932063000E0,-1.904412995E0,8.542499648E0,1.826332785E0,8.940725951E0
4.942007000E0,-8.790022811E-1,8.093331159E0,2.339839942E0,8.470507967E0
4.951951000E0,-1.748984063E-1,5.548322945E0,2.188526865E0,5.966919372E0
4.961895000E0,5.996248023E-1,2.287354165E0,2.635415524E0,3.540756128E0
4.971839000E0,1.076519033E0,2.365029162E-1,1.683158740E0,2.011926987E0
4.981783000E0,2.727857664E0,-1.747881278E0,-5.256036422E0,6.174319013E0
4.991727000E0,3.499183469E0,-3.275313170E0,-5.650008364E0,7.409086032E0
5.001671000E0,3.025599639E0,-4.594575414E0,-2.675787624E0,6.117533475E0
5.011615000E0,2.272463645E0,-6.535263366E0,-6.707153964E-1,6.951519073E0
5.021559000E0,1.517277910E0,-8.099349114E0,1.829102612E-1,8.242271804E0
5.031503000E0,7.680658360E-1,-8.615017986E0,-1.264301048E-1,8.650112404E0
5.041447000E0,1.416414902E-1,-8.946500734E0,-9.065281950E-1,8.993427103E0
5.051391000E0,-4.153644191E-1,-9.351179513E0,-1.495701538E0,9.479146004E0
5.061335000E0,-8.707502519E-1,-9.764146720E0,-1.651680693E0,9.941067160E0
5.071279000E0,-1.189111117E0,-1.019599809E1,-1.605131740E0,1.038984169E1
5.081223000E0,-1.409957821E0,-1.059230132E1,-1.552263263E0,1.079788635E1
5.091167000E0,-1.593210437E0,-1.074084165E1,-1.556193761E0,1.096930890E1
5.101111000E0,-1.648157453E0,-1.071584363E1,-1.665155602E0,1.096897766E1
5.111055000E0,-1.653276545E0,-1.069759447E1,-2.145805499E0,1.103523140E1
5.120999000E0,-1.572467878E0,-1.082005739E1,-3.262558054E0,1.141010877E1
5.130943000E0,-1.392522301E0,-1.109256220E1,-5.377045720E0,1.240550987E1
5.140887000E0,-1.333079361E0,-1.118499615E1,-5.948537375E0,1.273838044E1
5.150831000E0,-1.331333528E0,-1.102543265E1,-4.145082990E0,1.185387393E1
5.160775000E0,-1.272015280E0,-1.085075995E1,-2.583309231E0,1.122633070E1
5.170719000E0,-1.207160303E0,-1.071889120E1,-1.785839063E0,1.093348461E1
5.180663000E0,-1.105716081E0,-1.059378885E1,-1.463322435E0,1.075138516E1
5.190607000E0,-1.014537378E0,-1.043877332E1,-1.403392275E0,1.058143584E1
5.200551000E0,-9.432128951E-1,-1.028267605E1,-1.401481698E0,1.042051958E1
5.210495000E0,-9.205360772E-1,-9.910918264E0,-1.396507764E0,1.005106569E1
5.220439000E0,-1.023429385E0,-8.828041992E0,-1.439202086E0,9.002945949E0
5.230383000E0,-1.110899784E0,-7.965522720E0,-1.678235969E0,8.215846061E0
5.240327000E0,-9.569392338E-1,-7.122160680E0,-1.562128685E0,7.353988814E0
5.250271000E0,-1.077706164E-1,-4.586386973E0,-2.536802816E-1,4.594661430E0
5.260215000E0,2.429891448E0,6.305883527E0,1.730401904E0,6.975874874E0
5.270159000E0,8.265769642E0,4.573715472E1,1.224015194E1,4.806278799E1
5.280103000E0,7.636954224E0,7.048745028E1,2.555685581E1,7.536548677E1
5.290047000E0,3.207721111E-1,5.134830658E1,1.729976402E1,5.418517619E1
5.299991000E0,-4.056306176E0,2.437547032E1,3.670301358E0,2.498175905E1
5.309935000E0,-4.866569467E0,1.302812857E1,-1.453645878E0,1.398315840E1
5.319879000E0,-5.284267949E0,8.499131434E0,-2.505444199E0,1.031678116E1
5.329823000E0,-5.919975480E0,7.592059302E0,-2.050635194E0,9.843301216E0
5.339767000E0,-6.204754179E0,7.283748484E0,-1.179306506E0,9.640681005E0
5.349711000E0,-5.456634511E0,6.055439095E0,-1.733553261E-2,8.151288446E0
5.359655000E0,-4.243206285E0,4.809189278E0,2.865658996E-1,6.419908185E0
5.369599000E0,-2.996408585E0,3.285898384E0,1.950563899E-1,4.451251464E0
5.379543000E0,-1.809815571E0,1.317220396E0,2.891892529E-1,2.257018475E0
5.389486000E0,-7.780606279E-1,-8.313033271E-1,2.092180538E-1,1.157676879E0
5.399430000E0,5.397520915E-2,-2.817381459E0,1.185274467E-1,2.820390109E0
5.409374000E0,5.752259063E-1,-4.512610314E0,5.576007172E-2,4.549466549E0
5.419318000E0,6.550894435E-1,-5.828902758E0,-2.229334290E-1,5.869833801E0
5.429262000E0,4.356139116E-1,-6.925379654E0,-6.510683133E-1,6.969543226E0
5.439206000E0,2.902060837E-2,-7.858943181E0,-1.036214322E0,7.927015216E0
5.449150000E0,-3.954010016E-1,-8.617107196E0,-1.279953167E0,8.720616864E0
5.459094000E0,-7.766586117E-1,-9.200166398E0,-1.361138979E0,9.332682340E0
5.469038000E0,-1.135862279E0,-9.669240562E0,-1.356857356E0,9.829824925E0
5.478982000E0,-1.452540462E0,-1.004741567E1,-1.284626262E0,1.023282463E1
5.488926000E0,-1.654691425E0,-1.009826305E1,-1.247891276E0,1.030874158E1
5.498870000E0,-1.747207971E0,-1.008513722E1,-1.288226539E0,1.031611633E1
5.508814000E0,-1.737220927E0,-1.019802825E1,-2.086235528E0,1.055320309E1
5.518758000E0,-1.485062821E0,-1.070841299E1,-5.644724236E0,1.219583667E1
5.528702000E0,-1.529655588E0,-1.090641141E1,-7.611082048E0,1.338724116E1
5.538646000E0,-1.945274215E0,-1.055727884E1,-5.491534202E0,1.205807514E1
5.548590000E0,-2.085639550E0,-1.027264106E1,-3.311981059E0,1.099300983E1
5.558534000E0,-2.137259940E0,-1.013844044E1,-2.028496027E0,1.055796622E1
5.568478000E0,-2.122538112E0,-1.007753584E1,-1.368368184E0,1.038914473E1
5.578422000E0,-2.101192267E0,-1.005119998E1,-1.176013062E0,1.033560046E1
5.588366000E0,-2.083792123E0,-1.003251930E1,-1.169516221E0,1.031316641E1
5.598310000E0,-2.081546207E0,-1.004246424E1,-1.150937278E0,1.032029938E1
5.608254000E0,-2.056660165E0,-1.006152383E1,-1.113056091E0,1.032971474E1
5.618198000E0,-2.056443526E0,-9.989716512E0,-1.132097549E0,1.026182444E1
5.628141167E0,-2.060584231E0,-9.928733561E0,-1.088998892E0,1.019861148E1
5.638085167E0,-2.038476786E0,-9.811740131E0,-1.051977831E0,1.007632321E1
5.648029167E0,-1.989522873E0,-9.289048753E0,-1.079346454E0,9.560837661E0
5.657973167E0,-1.634788672E0,-8.582326203E0,-1.023478063E0,8.796383598E0
5.667917167E0,-2.181661941E-1,-7.705009382E0,-3.679122175E-1,7.716872777E0
5.677861167E0,3.732968307E0,-4.496158004E0,-5.828425625E-1,5.872835314E0
5.687805167E0,1.443700700E1,9.577908223E0,2.730388632E0,1.753905696E1
5.697749167E0,1.943469121E1,4.364814104E1,2.909582461E1,5.594134829E1
5.707693167E0,8.038586018E0,7.015240015E1,4.725456800E1,8.496453559E1
5.717637167E0,-3.344796511E0,5.538684746E1,2.365513078E1,6.031961329E1
5.727581167E0,-4.877757238E0,2.332079400E1,5.486688614E0,2.444904294E1
5.737525167E0,-7.513984355E0,1.241125784E1,-2.270667965E1,2.694610516E1
5.747469167E0,-8.464384355E0,9.244132197E0,-1.516798380E1,1.967657275E1
5.757413167E0,-3.462847994E0,8.658109626E0,1.022998884E0,9.380869109E0
5.767357167E0,-2.177864321E0,9.213455365E0,2.610917444E0,9.820781163E0
5.777301167E0,-1.943567120E0,7.988968885E0,6.756010374E0,1.064165181E1
5.787244167E0,-6.630002877E-1,5.970818775E0,7.369889665E0,9.508181735E0
5.797188167E0,2.183890900E0,3.304432304E0,2.117376190E0,4.491317651E0
5.807132167E0,4.369535087E0,-2.120638937E-1,-3.671609380E0,5.711262856E0
5.817076167E0,3.811235628E0,-3.432473463E0,-5.273447092E0,7.356400975E0
5.827020167E0,2.084899147E0,-6.149668145E0,-3.493317835E0,7.373499321E0
5.836964167E0,1.009453370E0,-8.348724675E0,-1.682921051E0,8.576270930E0
5.846908167E0,5.093587030E-1,-1.006780374E1,-8.257303458E-1,1.011444259E1
5.856852167E0,5.655923992E-2,-1.146522981E1,-5.721406960E-1,1.147963582E1
5.866796167E0,-3.493635339E-1,-1.259318343E1,-5.104730362E-1,1.260836653E1
5.876740167E0,-7.317290452E-1,-1.348358106E1,-3.653468248E-1,1.350836274E1
5.886684167E0,-1.009757718E0,-1.400281147E1,-6.372897881E-1,1.405362864E1
5.896628167E0,-1.221653211E0,-1.417384019E1,-1.278273847E0,1.428370282E1
5.906572167E0,-1.328554054E0,-1.412320564E1,-2.012199399E0,1.432755876E1
5.916516167E0,-1.335678594E0,-1.356293246E1,-2.389224356E0,1.383638562E1
5.926460167E0,-1.467821575E0,-1.268182722E1,-2.122184941E0,1.294167342E1
5.936404167E0,-1.618391033E0,-1.201745956E1,-1.463800153E0,1.221397703E1
5.946348167E0,-1.719391597E0,-1.155957229E1,-9.713874114E-1,1.172704620E1
5.956292167E0,-1.838572616E0,-1.115290780E1,-7.830580238E-1,1.133052874E1
5.966236167E0,-1.991597612E0,-1.076064968E1,-6.340264571E-1,1.096175315E1
5.976180167E0,-2.106507240E0,-1.045536538E1,-5.747598101E-1,1.068093567E1
5.986124167E0,-2.140200943E0,-1.028484537E1,-4.899012159E-1,1.051658250E1
5.996068167E0,-2.173980015E0,-1.004727767E1,-2.848244525E-1,1.028373000E1
6.006012167E0,-2.262591353E0,-9.684153886E0,-5.184009835E-2,9.945091428E0
6.015956167E0,-2.325573905E0,-9.332587706E0,1.413716412E-1,9.619016229E0
6.025900167E0,-2.276126049E0,-9.000254188E0,2.248277807E-1,9.286327194E0
6.035844167E0,-2.030046563E0,-8.741075184E0,1.427433980E-1,8.974845965E0
6.045788167E0,-1.841704092E0,-8.255010765E0,3.821462408E-2,8.458045699E0
6.055732167E0,-1.630749415E0,-7.358943093E0,-2.196879320E-1,7.540666409E0
6.065676167E0,-1.323462007E0,-5.813558494E0,-7.026634133E-1,6.003561437E0
6.075620167E0,-9.441259378E-1,-3.009414546E0,-9.529008543E-1,3.294839865E0
6.085564167E0,-4.754713109E-1,1.761160305E0,-5.515152276E-1,1.905761693E0
6.095508167E0,5.565623979E-1,9.124080673E0,5.244348715E-1,9.156071307E0
6.105452167E0,2.564925000E0,1.869185743E1,2.131346797E0,1.898702224E1
6.115396167E0,5.680159532E0,2.745980641E1,4.750175085E0,2.844062840E1
6.125340167E0,9.109239271E0,3.132333778E1,1.037743603E1,3.423186978E1
6.135283167E0,7.098589969E0,2.832576736E1,1.253349623E1,3.177778475E1
6.145227167E0,2.731910369E0,2.296323677E1,8.497760847E0,2.463707605E1
6.155171167E0,3.399242274E-1,2.041043597E1,3.871318692E0,2.077711610E1
6.165115167E0,-9.394139591E-1,2.105165099E1,3.012356865E-1,2.107475388E1
6.175059167E0,-7.329309404E-1,2.248572273E1,9.478219628E-1,2.251762156E1
6.185003167E0,-1.342813075E-1,2.161328073E1,3.708570215E0,2.192955605E1
6.194947167E0,-3.693139413E-1,1.839921832E1,5.626548750E0,1.924384780E1
6.204891167E0,-7.176407638E-1,1.473250306E1,5.814660695E0,1.585471329E1
6.214835167E0,-7.913063255E-1,1.139183556E1,5.106367582E0,1.250899968E1
6.224779167E0,-4.852579419E-1,8.153096720E0,3.699343309E0,8.966247951E0
6.234723167E0,-1.575415313E-2,5.012117482E0,1.651259547E0,5.277142024E0
6.244667167E0,1.341750343E-1,1.932355669E0,-1.099444650E-1,1.940126067E0
6.254611167E0,-8.515621752E-2,-8.874985778E-1,-9.447907662E-1,1.299051538E0
6.264555167E0,-4.412648070E-1,-3.566961762E0,-1.272134855E0,3.812644480E0
6.274499167E0,-7.369155255E-1,-6.456568029E0,-1.448171130E0,6.657891170E0
6.284443167E0,-8.404305384E-1,-8.795888153E0,-1.661706183E0,8.990841970E0
6.294387167E0,-7.517025492E-1,-1.056877213E1,-1.648119008E0,1.072288661E1
6.304331167E0,-3.652931035E-1,-1.193975592E1,-1.478748559E0,1.203652390E1
6.314275167E0,6.546542645E-3,-1.276000917E1,-1.234577020E0,1.281959662E1
6.324219167E0,1.574880293E-1,-1.308234863E1,-9.784713131E-1,1.311983439E1
6.334163167E0,2.909238294E-2,-1.292434166E1,-7.432126844E-1,1.294572589E1
6.344107167E0,-4.450730985E-1,-1.213567857E1,-6.375798100E-1,1.216056300E1
6.354051167E0,-1.014158917E0,-1.122413741E1,-6.240294725E-1,1.128712504E1
6.363995167E0,-1.452748038E0,-1.060629488E1,-6.653581774E-1,1.072598105E1
6.373939167E0,-1.674096141E0,-1.026118052E1,-6.739687872E-1,1.041866870E1
6.383883167E0,-1.759605238E0,-1.006523564E1,-6.549735224E-1,1.023885586E1
6.393827167E0,-1.784385007E0,-9.983790944E0,-6.838692927E-1,1.016502773E1
6.403771167E0,-1.767725558E0,-9.966745141E0,-7.908020031E-1,1.015313893E1
6.413715167E0,-1.746493149E0,-9.978224394E0,-9.503350961E-1,1.017439616E1
6.423659167E0,-1.720290606E0,-1.001056184E1,-1.205871869E0,1.022863016E1
6.433603167E0,-1.703599729E0,-1.006065025E1,-1.460220487E0,1.030782128E1
6.443547167E0,-1.671387272E0,-1.014373568E1,-1.624772245E0,1.040811192E1
6.453491167E0,-1.610959514E0,-1.024531585E1,-1.673404123E0,1.050533049E1
6.463435167E0,-1.558147024E0,-1.029172403E1,-1.684552424E0,1.054443562E1
6.473378167E0,-1.499651332E0,-1.035638254E1,-1.692282882E0,1.060035069E1
6.483322167E0,-1.427656174E0,-1.049152339E1,-1.657544720E0,1.071716939E1
6.493266167E0,-1.355357253E0,-1.069273310E1,-1.561535924E0,1.089081856E1
6.503210167E0,-1.301729514E0,-1.075255947E1,-1.591451741E0,1.094736286E1
6.513154167E0,-1.287475610E0,-1.063945795E1,-1.850542012E0,1.087566847E1
6.523098167E0,-1.287923215E0,-1.057608114E1,-2.317762610E0,1.090340599E1
6.533042167E0,-1.467995676E0,-1.011634031E1,-2.705143278E0,1.057417385E1
6.542986167E0,-1.615627492E0,-8.281403927E0,-2.767822798E0,8.879906883E0
6.552930167E0,-1.401624662E0,-5.564401619E0,-3.134561334E0,6.538546614E0
6.562874167E0,-1.684412383E0,8.959758711E-1,-3.475142350E0,3.964420788E0
6.572818167E0,-3.016070140E0,1.696380289E1,-1.240354654E0,1.727442523E1
6.582762167E0,-3.201291805E0,3.551157673E1,2.324013283E0,3.573123828E1
6.592706167E0,-1.286230300E-1,3.780216265E1,1.739361008E0,3.784237601E1
6.602650167E0,2.474175044E0,3.024200518E1,4.624427204E0,3.069341536E1
6.612594167E0,3.510633487E0,2.164426864E1,1.210273068E1,2.504545871E1
6.622538167E0,2.637297742E0,1.544454306E1,1.843171246E1,2.419126442E1
6.632482500E0,3.260530239E-1,1.370706047E1,2.474572537E1,2.829029413E1
6.642426500E0,-2.137831797E0,1.602539026E1,3.065779133E1,3.465953876E1
6.652370500E0,-3.275077820E0,1.918330187E1,2.856308713E1,3.456262652E1
6.662314500E0,-2.564544346E0,1.828731313E1,1.781578665E1,2.565940302E1
6.672258500E0,-1.122918590E0,1.449441496E1,9.189088848E0,1.719849892E1
6.682202500E0,-9.941669941E-2,1.048015874E1,5.191821715E0,1.169609438E1
6.692146500E0,5.063226825E-1,6.938072205E0,2.809743826E0,7.502524172E0
6.702090500E0,9.100865912E-1,3.824369059E0,1.239114752E0,4.121827467E0
6.712034500E0,1.078258653E0,1.098203579E0,3.690981790E-1,1.582695893E0
6.721978500E0,9.867769906E-1,-1.611687346E0,-3.351857901E-2,1.890076302E0
6.731922500E0,8.609647903E-1,-4.149909282E0,-4.050541699E-1,4.257590433E0
6.741866500E0,7.112649599E-1,-6.300325164E0,-7.450212282E-1,6.383968331E0
6.751810500E0,4.198850477E-1,-8.010052775E0,-1.163036336E0,8.104930748E0
6.761754500E0,6.335458159E-3,-9.365024550E0,-1.642121519E0,9.507906607E0
6.771698500E0,-4.174374032E-1,-1.034488809E1,-1.861016715E0,1.051923698E1
6.781642500E0,-7.722037643E-1,-1.087364829E1,-2.014159970E0,1.108554762E1
6.791586500E0,-1.037237000E0,-1.092960848E1,-2.360601650E0,1.122963233E1
6.801530500E0,-1.246610297E0,-1.065424906E1,-2.539557440E0,1.102344829E1
6.811474500E0,-1.365226037E0,-1.033389883E1,-2.519861678E0,1.072394564E1
6.821418500E0,-1.428796819E0,-1.009256085E1,-2.442048979E0,1.048164339E1
6.831361500E0,-1.474161126E0,-9.986663096E0,-2.400297228E0,1.037632004E1
6.841306500E0,-1.497215090E0,-1.000887316E1,-2.363220326E0,1.039249755E1
6.851249500E0,-1.491293761E0,-1.018324649E1,-2.493871390E0,1.058970541E1
6.861193500E0,-1.300065104E0,-1.056461125E1,-3.156364139E0,1.110242382E1
6.871137500E0,-9.932263233E-1,-1.119914173E1,-4.745252899E0,1.220347078E1
6.881081500E0,-1.016371796E0,-1.115445497E1,-4.475729002E0,1.206180034E1
6.891025500E0,-1.310244083E0,-1.080718182E1,-3.587322351E0,1.146214640E1
6.900969500E0,-1.468109550E0,-1.085272227E1,-3.829650849E0,1.160185985E1
6.910913500E0,-1.376568758E0,-1.080868104E1,-3.633690187E0,1.148591450E1
6.920857500E0,-1.224722561E0,-1.051159337E1,-2.530384912E0,1.088101045E1
6.930801500E0,-1.249599832E0,-1.020919526E1,-1.673882425E0,1.042070295E1
6.940745500E0,-1.399010518E0,-9.963657811E0,-1.265066156E0,1.014061634E1
6.950689500E0,-1.430955319E0,-9.834281148E0,-1.068467052E0,9.995115840E0
6.960633500E0,-1.457540416E0,-9.758612330E0,-9.538679838E-1,9.912860475E0
6.970577500E0,-1.337308067E0,-9.645085130E0,-9.392826160E-1,9.782551398E0
6.980521500E0,-1.055015313E0,-9.348075811E0,-8.633840027E-1,9.446957744E0
6.990465500E0,-8.649999538E-1,-9.119081304E0,-7.726294416E-1,9.192541814E0
7.000409500E0,-6.167985132E-1,-8.923779039E0,-7.113273789E-1,8.973308162E0
7.010353500E0,-5.036645383E-2,-8.652434903E0,-7.281321305E-1,8.683164339E0
7.020297500E0,8.440843172E-1,-8.361734730E0,-8.281856648E-1,8.444937982E0
7.030241500E0,2.218777289E0,-8.010741577E0,-6.034993867E-1,8.334216507E0
7.040185500E0,4.192931925E0,-7.749891440E0,8.924247108E-2,8.811893081E0
7.050129500E0,5.989093663E0,-7.900823278E0,1.166119573E0,9.982589155E0
7.060073500E0,7.809569877E0,-8.068600945E0,2.582276613E0,1.152214630E1
7.070017500E0,1.238632298E1,4.619662893E-1,2.611614432E0,1.266708095E1
7.079961500E0,2.376872113E1,4.101158940E1,-3.079803329E0,4.750145006E1
7.089905500E0,1.098997046E1,6.989986124E1,6.620322812E-1,7.076163041E1
7.099849500E0,-2.066602010E1,6.832031312E1,2.078996938E1,7.434361034E1
7.109793500E0,-3.618276225E1,5.509042169E1,3.065001453E1,7.268817123E1
7.119737500E0,-2.655188117E1,3.428469523E1,2.377104686E0,4.342917623E1
7.129681500E0,-1.394487492E1,1.660892251E1,-1.250420635E1,2.503339809E1
7.139625500E0,-9.573848501E0,7.686213507E0,-3.829009409E0,1.286070629E1
7.149569500E0,-6.778947832E0,-1.143354608E0,1.632618156E1,1.771455892E1
7.159513500E0,-2.586042512E0,-9.864678483E0,2.400823010E1,2.608437482E1
7.169457500E0,6.911743947E0,-1.061511248E1,-1.209483226E1,1.751393116E1
7.179401500E0,9.415287800E0,-1.117235681E1,-7.727787795E0,1.652839693E1
7.189345500E0,5.747001978E0,-7.946345022E0,-8.829410241E0,1.319586739E1
7.199289500E0,3.830986937E0,-6.418160008E0,-1.136621306E1,1.360367737E1
7.209233500E0,2.911704357E0,-6.945844324E0,-6.724603225E0,1.009668580E1
7.219177500E0,1.977390924E0,-8.131489504E0,-3.661244606E0,9.134325836E0
7.229121500E0,1.244878644E0,-1.033096586E1,-1.579273306E0,1.052486022E1
7.239065500E0,8.599591423E-1,-1.194776075E1,9.707699454E-1,1.201794121E1
7.249008500E0,1.031382768E0,-1.265078436E1,2.638710430E0,1.296413853E1
7.258952500E0,1.215372790E0,-1.280917958E1,3.123582602E0,1.324042978E1
7.268896500E0,1.052225533E0,-1.264908515E1,2.706802425E0,1.297818605E1
7.278840500E0,9.652440342E-1,-1.242154894E1,1.760035300E0,1.258269838E1
7.288784500E0,9.077975524E-1,-1.188149894E1,5.547487744E-1,1.192903431E1
7.298728500E0,7.579621397E-1,-1.097872041E1,-3.331380221E-1,1.100989507E1
7.308672500E0,7.058086306E-1,-1.014501388E1,-5.438846111E-1,1.018407006E1
7.318616500E0,9.146861572E-1,-9.771626478E0,-5.511865775E-1,9.829808820E0
7.328560500E0,1.291571877E0,-9.890198071E0,-3.759712887E-1,9.981258949E0
7.338504500E0,1.601960211E0,-1.011175492E1,-7.759606004E-2,1.023815829E1
7.348448500E0,1.686851988E0,-1.023719524E1,4.702389665E-1,1.038589238E1
7.358392500E0,1.588623589E0,-1.024089769E1,1.007489290E0,1.041224016E1
7.368336500E0,1.526176203E0,-1.020177163E1,1.289722695E0,1.039561171E1
7.378280500E0,1.475671754E0,-1.003094640E1,1.172923393E0,1.020652938E1
7.388224500E0,1.364802991E0,-9.767780764E0,5.383695173E-1,9.877351365E0
7.398168500E0,1.227493410E0,-9.539967980E0,-8.463259935E-2,9.618986007E0
7.408112500E0,1.160362624E0,-9.318870138E0,-8.394192624E-1,9.428276978E0
7.418056500E0,1.044101850E0,-8.785639154E0,-1.572499892E0,8.986120404E0
7.428000500E0,7.855544195E-1,-7.535696821E0,-1.893346555E0,7.809518775E0
7.437944500E0,4.916909755E-1,-5.242913516E0,-1.621726431E0,5.509981739E0
7.447888500E0,4.453906024E-1,-1.853986022E0,-1.473384324E0,2.409667679E0
7.457832500E0,7.562288057E-1,2.988206695E0,-1.182218054E0,3.301348329E0
7.467776500E0,1.093005696E0,9.441765747E0,3.986327577E-1,9.513175598E0
7.477720500E0,6.112706286E-1,1.648148244E1,2.867141265E0,1.674017366E1
7.487664500E0,-4.661436863E-1,2.192542615E1,4.588084420E0,2.240518066E1
7.497608500E0,-2.192556473E0,2.463053289E1,4.979060833E0,2.522422449E1
7.507552500E0,-6.113993697E0,2.692698941E1,4.897114445E0,2.804327741E1
7.517496500E0,-8.439223786E0,2.747813860E1,3.344595659E0,2.893881337E1
7.527440500E0,-6.265135451E0,2.558550716E1,1.137701009E0,2.636597168E1
7.537384500E0,-2.923563972E0,2.310906165E1,8.079980066E-1,2.330726962E1
7.547328500E0,-2.035948450E0,2.124448281E1,8.839147463E-1,2.136011332E1
7.557272500E0,-2.716804965E0,1.947025164E1,1.070940351E0,1.968803295E1
7.567216500E0,-3.497020876E0,1.730891842E1,1.549823220E0,1.772652712E1
7.577160500E0,-3.500001202E0,1.442727255E1,1.868024018E0,1.496281108E1
7.587104500E0,-2.489821316E0,1.079699012E1,2.084261069E0,1.127467738E1
7.597048500E0,-1.389989434E0,6.858637195E0,1.350499240E0,7.127188997E0
7.606992500E0,-8.158956215E-1,3.115072564E0,1.164028609E-1,3.222252686E0
7.616936500E0,-5.285144739E-1,-3.379146856E-1,-2.406299176E-1,6.718754655E-1
7.626880500E0,-2.282779303E-1,-3.618257630E0,-4.279793483E-1,3.650625346E0
7.636824542E0,2.132595031E-1,-6.668681624E0,-7.689334897E-1,6.716252893E0
7.646768542E0,5.113300918E-1,-9.170264322E0,-9.383856531E-1,9.232322234E0
7.656712542E0,7.150225268E-1,-1.109540511E1,-6.798230195E-1,1.113918449E1
7.666656542E0,9.084411116E-1,-1.245632584E1,-2.124188562E-1,1.249121453E1
7.676600542E0,1.195706777E0,-1.324950299E1,-3.840041935E-2,1.330340252E1
7.686544542E0,1.672021256E0,-1.365408002E1,-5.539359748E-2,1.375618497E1
7.696488542E0,2.218623945E0,-1.356503979E1,5.829557061E-2,1.374539905E1
7.706432542E0,2.783664075E0,-1.316338169E1,1.906309247E-1,1.345584420E1
7.716376542E0,3.246255139E0,-1.245993942E1,4.699951011E-1,1.288445413E1
7.726320542E0,3.408721488E0,-1.138296299E1,8.478603029E-1,1.191260239E1
7.736264542E0,3.176035342E0,-1.019918366E1,8.999087083E-1,1.072009251E1
7.746207542E0,2.581044019E0,-9.329150712E0,5.259482771E-1,9.693887911E0
7.756151542E0,2.016983298E0,-9.170057330E0,1.200842679E-2,9.389266066E0
7.766095542E0,1.590169008E0,-9.397962500E0,-4.031959248E-1,9.540068322E0
7.776039542E0,1.354865648E0,-9.777504099E0,-5.753929174E-1,9.887685490E0
7.785983542E0,1.348005694E0,-1.022944417E1,-7.473642075E-1,1.034491182E1
7.795927542E0,1.423578910E0,-1.054155684E1,-9.079375201E-1,1.067592376E1
7.805871542E0,1.533575562E0,-1.069373765E1,-1.077386906E0,1.085673254E1
7.815815542E0,1.658977141E0,-1.065068460E1,-1.282441158E0,1.085513440E1
7.825759542E0,1.715374413E0,-1.054284440E1,-1.330377216E0,1.076401324E1
7.835703542E0,1.630801163E0,-1.035149193E1,-1.462223743E0,1.058068976E1
7.845647542E0,1.405949847E0,-9.943653316E0,-1.994709207E0,1.023874021E1
7.855591542E0,1.178163376E0,-9.349958614E0,-2.317370846E0,9.704638204E0
7.865535542E0,1.083581885E0,-8.504379895E0,-2.413614846E0,8.906411383E0
7.875479542E0,1.035657959E0,-7.212812988E0,-2.297534752E0,7.640413898E0
7.885423542E0,9.867179337E-1,-5.236121390E0,-2.060872791E0,5.712948114E0
7.895367542E0,1.080467219E0,-2.307963846E0,-1.590279520E0,3.003846780E0
7.905311542E0,1.473692911E0,1.895005994E0,1.021241064E-1,2.402758383E0
7.915255542E0,1.961996813E0,8.248076552E0,2.347380950E0,8.797181118E0
7.925199542E0,2.122556677E0,1.662088357E1,4.323853422E0,1.730476021E1
7.935143542E0,1.708706833E0,2.458303712E1,5.190625960E0,2.518308939E1
7.945087542E0,-7.006065090E-1,2.968650566E1,4.729132125E0,3.006898998E1
7.955031542E0,-5.516004800E0,2.975772942E1,4.745662204E0,3.063445901E1
7.964975542E0,-1.008942089E1,2.739051223E1,3.204164250E0,2.936500030E1
7.974919542E0,-8.738729866E0,2.467435192E1,6.262519991E-1,2.618360621E1
7.984863542E0,-4.212814797E0,2.346353857E1,1.787223391E-1,2.383940839E1
7.994807542E0,-2.850639253E0,2.337670508E1,2.664656572E-1,2.355137976E1
8.004751542E0,-3.270310877E0,2.271760927E1,5.388539591E-1,2.295811551E1
8.014695542E0,-3.432506792E0,2.080488914E1,1.195856100E0,2.112002809E1
8.024639542E0,-2.940193161E0,1.748679306E1,1.739082388E0,1.781732513E1
8.034583542E0,-1.775342141E0,1.350918836E1,1.898921875E0,1.375703144E1
8.044527542E0,-5.550761819E-1,9.127429959E0,1.668317630E0,9.295233775E0
8.054471542E0,4.917166302E-1,4.873905677E0,1.060317714E0,5.012086935E0
8.064415542E0,1.288860523E0,9.073247319E-1,1.623473579E-1,1.584536614E0
8.074359542E0,1.704823844E0,-2.851050312E0,-5.328918457E-1,3.364355204E0
8.084303542E0,1.825482747E0,-6.294860941E0,-1.206548392E0,6.664339468E0
8.094247542E0,1.770219542E0,-9.218876903E0,-1.721340766E0,9.543813840E0
8.104191542E0,1.833456594E0,-1.154091266E1,-1.731171690E0,1.181317838E1
8.114135542E0,1.908740665E0,-1.333638325E1,-1.428219261E0,1.354777544E1
8.124079542E0,1.945267052E0,-1.471634720E1,-9.615880626E-1,1.487546942E1
8.134023542E0,2.159375863E0,-1.548060284E1,-6.144885707E-1,1.564255621E1
8.143967542E0,2.670747032E0,-1.553371661E1,-4.315350401E-1,1.576754464E1
8.153911542E0,3.359514245E0,-1.487217082E1,-2.804634529E-1,1.524947411E1
8.163855542E0,3.850849052E0,-1.383094075E1,-9.413023174E-2,1.435732639E1
8.173799542E0,3.873779493E0,-1.270403963E1,7.918533325E-2,1.328175669E1
8.183743542E0,3.316258298E0,-1.166201434E1,1.542864229E-1,1.212534337E1
8.193687542E0,2.510333933E0,-1.093364540E1,1.631800014E-1,1.121931397E1
8.203631542E0,1.872820343E0,-1.061255140E1,1.478386251E-1,1.077754886E1
8.213575542E0,1.419754393E0,-1.056660164E1,4.378515679E-2,1.066164574E1
8.223519542E0,1.170263495E0,-1.071801061E1,-1.482655084E-1,1.078272928E1
8.233463542E0,1.012531198E0,-1.094324068E1,-1.407096633E-1,1.099088419E1
8.243407542E0,8.407815175E-1,-1.107755473E1,5.905918043E-2,1.110957337E1
8.253351542E0,8.101318748E-1,-1.117332043E1,1.080705420E-1,1.120317287E1
8.263295542E0,9.098729485E-1,-1.131406525E1,-5.590172052E-2,1.135072977E1
8.273239542E0,1.006480353E0,-1.128814337E1,-5.561169863E-1,1.134656114E1
8.283183542E0,1.178448720E0,-1.122933676E1,-1.076531532E0,1.134220726E1
8.293127542E0,1.425903763E0,-1.105000265E1,-1.500899566E0,1.124226221E1
8.303071542E0,1.735882791E0,-1.062014576E1,-1.676981303E0,1.089096191E1
8.313015542E0,2.097014724E0,-9.909089255E0,-1.296913601E0,1.021124407E1
8.322959542E0,2.440777502E0,-8.955588477E0,-5.442581020E-1,9.298181363E0
8.332903542E0,2.615568027E0,-7.650084146E0,2.777158463E-1,8.089629759E0
8.342847542E0,2.185961984E0,-5.645443443E0,8.968168469E-1,6.119946235E0
8.352791542E0,6.547503050E-1,-2.221589361E0,1.022953860E0,2.531914661E0
8.362735542E0,-7.699663273E-1,3.065425025E0,9.629264903E-1,3.304074175E0
8.372678542E0,-1.335044464E0,1.004045046E1,9.889343208E-1,1.017698287E1
8.382623542E0,-1.589842879E0,1.877287411E1,2.530255104E0,1.900922391E1
8.392566542E0,-1.883466661E0,2.797352407E1,6.234346937E0,2.872163953E1
8.402510542E0,-2.647332149E0,3.236389425E1,7.924503332E0,3.342495731E1
8.412454542E0,-6.493289713E0,3.048635330E1,6.591259811E0,3.185946099E1
8.422398542E0,-1.058573022E1,2.767452553E1,5.354284848E0,3.010988897E1
8.432342542E0,-1.016839222E1,2.517746273E1,3.303915995E0,2.735354987E1
8.442286542E0,-6.849226686E0,2.209199929E1,3.226325197E0,2.335331911E1
8.452230542E0,-4.308763513E0,2.022586510E1,4.879293301E0,2.124755433E1
8.462174542E0,-3.593222777E0,1.832579015E1,5.715017123E0,1.952965067E1
8.472118542E0,-3.226868404E0,1.571737648E1,4.363581744E0,1.662797188E1
8.482062542E0,-2.549992965E0,1.266258053E1,1.406078632E0,1.299309305E1
8.492006542E0,-1.535117180E0,9.087325076E0,-1.353443313E0,9.314927299E0
8.501950542E0,-2.025838029E-1,5.281143197E0,-2.189546034E0,5.720631565E0
8.511894542E0,7.530320598E-1,1.793812911E0,-1.481302185E0,2.445215370E0
8.521838542E0,1.161851983E0,-1.384184464E0,-6.989352286E-1,1.937621510E0
8.531782542E0,1.333100265E0,-4.120314184E0,-4.170180117E-1,4.350637806E0
8.541726542E0,1.421578285E0,-6.282328604E0,-3.923339908E-1,6.453097200E0
8.551670542E0,1.472452131E0,-8.052504146E0,-4.553683642E-1,8.198676640E0
8.561614542E0,1.550469191E0,-9.406621642E0,-4.427594284E-1,9.543821108E0
8.571558542E0,1.665603060E0,-1.031753949E1,-4.698306482E-1,1.046167269E1
8.581502542E0,1.916830727E0,-1.110727964E1,-5.867154658E-1,1.128672388E1
8.591446542E0,2.116844094E0,-1.170497734E1,-6.852544250E-1,1.191457499E1
8.601390542E0,2.219038805E0,-1.214815653E1,-8.804468358E-1,1.238050996E1
8.611334542E0,2.377086706E0,-1.256568515E1,-9.530809486E-1,1.282401449E1
8.621278542E0,2.563692992E0,-1.301070387E1,-7.446173318E-1,1.328176915E1
8.631222292E0,2.657426198E0,-1.332361995E1,-3.143592504E-1,1.358968669E1
8.641166292E0,2.670954900E0,-1.315995171E1,-9.549204826E-2,1.342860558E1
8.651110292E0,2.766950394E0,-1.271349107E1,-3.212858621E-1,1.301507181E1
8.661054292E0,2.889980781E0,-1.209608473E1,-5.269581643E-1,1.244768813E1
8.670998292E0,2.789314240E0,-1.137311745E1,-6.410600728E-1,1.172770363E1
8.680942292E0,2.508817165E0,-1.082205012E1,-8.077333470E-1,1.113837356E1
8.690886292E0,2.071701835E0,-1.047623409E1,-8.115737982E-1,1.070990575E1
8.700830292E0,1.685651993E0,-1.026891755E1,-8.676923043E-1,1.044246045E1
8.710774292E0,1.488142404E0,-1.015353795E1,-1.026520808E0,1.031322674E1
8.720718292E0,1.575379499E0,-1.007819775E1,-1.089065038E0,1.025855512E1
8.730662292E0,1.871927327E0,-9.966279702E0,-1.097215984E0,1.019974146E1
8.740606292E0,2.122229087E0,-9.790377329E0,-1.085247903E0,1.007636381E1
8.750550292E0,2.394387447E0,-9.427332480E0,-9.750758350E-1,9.775400852E0
8.760494292E0,2.732379024E0,-8.983087932E0,-8.940511139E-1,9.431918750E0
8.770438292E0,2.805128034E0,-8.094287764E0,-1.005895339E0,8.625431185E0
8.780382292E0,2.447427833E0,-5.986418561E0,-1.436480645E0,6.624997119E0
8.790326292E0,1.651096703E0,-2.158558130E0,-1.793382117E0,3.256027171E0
8.800270292E0,2.407532573E-1,3.938471625E0,-1.948962492E0,4.400906233E0
8.810214292E0,-1.618294407E0,1.266426219E1,-1.294423126E0,1.283269047E1
8.820158292E0,-3.483544798E0,2.345271420E1,1.887604881E0,2.378503605E1
8.830102292E0,-3.908099725E0,3.165779384E1,7.564288536E0,3.278273350E1
8.840046292E0,-5.794067386E0,3.148397951E1,1.479719080E1,3.526710986E1
8.849990292E0,-7.280360023E0,2.447114714E1,1.621753796E1,3.024647454E1
8.859934292E0,-5.869392387E0,1.938644116E1,8.009239427E0,2.178145505E1
8.869878292E0,-4.877303494E0,1.906046239E1,-6.876460093E-1,1.968659882E1
8.879822292E0,-3.935899727E0,2.029426583E1,-3.347290056E0,2.094165425E1
8.889766292E0,-2.928082116E0,1.996228431E1,-7.003911853E-1,2.018804120E1
8.899710292E0,-2.862355026E0,1.798368009E1,1.246105390E0,1.825263281E1
8.909654292E0,-2.896465928E0,1.511853039E1,2.129375846E0,1.554006813E1
8.919598292E0,-2.326343399E0,1.221282206E1,3.552799805E0,1.293009214E1
8.929542292E0,-1.590262856E0,9.190046037E0,5.606938943E0,1.088226293E1
8.939486292E0,-1.031245943E0,6.127281495E0,5.965600719E0,8.613677418E0
8.949430292E0,3.404336661E-2,3.164699053E0,1.565337637E0,3.530830067E0
8.959374292E0,1.268014615E0,-1.946339285E-1,-4.309749354E0,4.496630174E0
8.969318292E0,1.939907494E0,-3.781842259E0,-5.149560964E0,6.677091439E0
8.979262292E0,2.305241967E0,-6.589533713E0,-1.783374462E0,7.205311898E0
8.989206292E0,2.813314136E0,-9.034986064E0,1.353512895E0,9.559168727E0
8.999150292E0,3.277290698E0,-1.082063977E1,2.299311136E0,1.153749154E1
9.009094292E0,3.950691428E0,-1.219907876E1,1.123605638E0,1.287198411E1
9.019038292E0,4.635020605E0,-1.282906011E1,-5.552119104E-1,1.365197640E1
9.028982292E0,4.898741433E0,-1.251463077E1,-1.368798686E0,1.350878458E1
9.038926292E0,4.820228237E0,-1.193823915E1,-1.268926488E0,1.293701390E1
9.048870292E0,4.603652632E0,-1.153777621E1,-1.103807038E0,1.247125845E1
9.058814292E0,4.283592127E0,-1.142666391E1,-1.208767995E0,1.226290870E1
9.068758292E0,3.895261286E0,-1.163428217E1,-1.344321072E0,1.234247873E1
9.078702292E0,3.499998571E0,-1.194273916E1,-1.464083742E0,1.253086390E1
9.088646292E0,3.105350983E0,-1.217687337E1,-1.539232743E0,1.266051687E1
9.098590292E0,2.777263128E0,-1.225658613E1,-1.530625641E0,1.266017017E1
9.108534292E0,2.475627492E0,-1.202434992E1,-1.271367701E0,1.234220800E1
9.118478292E0,2.243076124E0,-1.159518885E1,-9.152633505E-1,1.184556888E1
9.128422292E0,2.064127059E0,-1.106869503E1,-5.374035573E-1,1.127233041E1
9.138366292E0,1.909893590E0,-1.049755304E1,-2.426726058E-1,1.067263807E1
9.148310292E0,1.735298947E0,-9.931601036E0,-8.282756388E-2,1.008240160E1
9.158254292E0,1.517656225E0,-9.363117773E0,-4.651913211E-2,9.485431929E0
9.168198292E0,1.320521296E0,-8.810482219E0,-1.270273979E-1,8.909798504E0
9.178142292E0,1.150149365E0,-8.236643491E0,-2.766458058E-1,8.321158121E0
9.188086292E0,9.660822326E-1,-7.449237551E0,-6.065989226E-1,7.536074391E0
9.198030292E0,6.736787653E-1,-6.166264297E0,-6.940563118E-1,6.241664251E0
9.207974292E0,1.185809487E-1,-4.044632503E0,-3.963130210E-1,4.065732103E0
9.217918292E0,-7.788102409E-1,-4.056739748E-1,-9.392148614E-2,8.831409914E-1
9.227862292E0,-2.169542710E0,5.465286051E0,-2.193816841E-2,5.880199697E0
9.237806292E0,-4.126401136E0,1.282476241E1,-1.123565876E-1,1.347272583E1
9.247750292E0,-5.560781608E0,1.916888030E1,6.665159261E-1,1.997029062E1
9.257694292E0,-5.587738441E0,2.268612552E1,1.546451715E0,2.341526479E1
9.267638292E0,-5.828793415E0,2.386739406E1,2.716904660E0,2.471859427E1
9.277582292E0,-7.301532791E0,2.364844858E1,5.079912440E0,2.526592590E1
9.287526292E0,-8.275909299E0,2.289489685E1,6.490948488E0,2.519522551E1
9.297470292E0,-7.240372669E0,2.098493894E1,4.057091750E0,2.256658264E1
9.307414292E0,-7.130306436E0,1.949594664E1,1.828061222E0,2.083926614E1
9.317358292E0,-6.987718574E0,1.847189804E1,4.672219129E-1,1.975493671E1
9.327302292E0,-6.055196435E0,1.619963846E1,-8.630488841E-1,1.731584660E1
9.337246292E0,-5.019718863E0,1.299710207E1,-1.849321114E0,1.405497166E1
9.347190292E0,-4.092446355E0,9.950182317E0,-1.716318154E0,1.089495265E1
9.357134292E0,-2.815609461E0,6.950564196E0,-4.831050702E-1,7.514744825E0
9.367078292E0,-1.313282297E0,3.983419756E0,1.060381449E0,4.326286186E0
9.377022292E0,-7.570477813E-2,1.296062247E0,1.094757887E0,1.698235376E0
9.386966292E0,9.919295570E-1,-1.258058268E0,-9.925362056E-1,1.884612154E0
9.396910292E0,1.944794743E0,-4.154148513E0,-2.747044133E0,5.346534198E0
9.406854292E0,2.451881365E0,-6.684439870E0,-2.544636916E0,7.560994355E0
9.416798292E0,2.750875229E0,-8.434814401E0,-1.229567710E0,8.956854652E0
9.426742292E0,3.205050395E0,-9.675607595E0,-1.570596842E-1,1.019384119E1
9.436686292E0,3.754110085E0,-1.073318413E1,1.552499892E-1,1.137183744E1
9.446630292E0,4.267840605E0,-1.160717915E1,-8.914900700E-2,1.236725591E1
9.456574292E0,4.610632453E0,-1.211469174E1,-4.109610637E-1,1.296890808E1
9.466518292E0,4.684394201E0,-1.216038423E1,-6.420377272E-1,1.304724898E1
9.476462292E0,4.616238179E0,-1.210179629E1,-7.675037724E-1,1.297506033E1
9.486406292E0,4.375710331E0,-1.187536755E1,-7.541703665E-1,1.267832671E1
9.496350292E0,4.014060336E0,-1.147393514E1,-7.920965767E-1,1.218159616E1
9.506294292E0,3.652728136E0,-1.099850505E1,-7.729984009E-1,1.161494997E1
9.516238292E0,3.344653254E0,-1.058765395E1,-7.318842888E-1,1.112747843E1
9.526182292E0,3.165155428E0,-1.041257779E1,-7.638492626E-1,1.090978693E1
9.536126292E0,3.084358602E0,-1.045546361E1,-8.242743891E-1,1.093203620E1
9.546070292E0,3.010665558E0,-1.057871473E1,-7.830058374E-1,1.102662281E1
9.556014292E0,2.835418950E0,-1.075122630E1,-5.310118928E-1,1.113150669E1
9.565958292E0,2.555651608E0,-1.091051615E1,-2.926334091E-1,1.120965442E1
9.575902292E0,2.284286423E0,-1.098425656E1,-1.593413774E-1,1.122039421E1
9.585846292E0,2.019830015E0,-1.101055733E1,6.955964684E-2,1.119450422E1
9.595790292E0,1.737597780E0,-1.090537528E1,3.934932013E-1,1.104994538E1
9.605734292E0,1.480666154E0,-1.055827988E1,6.297275110E-1,1.068017804E1
9.615678292E0,1.161295620E0,-9.644515026E0,4.989516094E-1,9.726984647E0
9.625622292E0,5.335578436E-1,-8.022254160E0,3.728534071E-1,8.048618853E0
9.635567292E0,-1.265255606E-1,-5.472419069E0,5.399633221E-1,5.500449034E0
9.645511292E0,-6.742099848E-1,-7.762436056E-1,1.432639171E0,1.763396788E0
9.655455292E0,-8.994308446E-1,7.040959226E0,3.640355720E0,7.977234636E0
9.665399292E0,-4.293641151E-1,1.621087681E1,6.207697667E0,1.736411215E1
9.675343292E0,-1.097686100E-1,2.558397052E1,7.311386518E0,2.660841914E1
9.685287292E0,-1.536817112E0,3.316490198E1,8.764616075E0,3.433789489E1
9.695231292E0,-7.118225504E0,3.276266266E1,8.223524094E0,3.452082773E1
9.705175292E0,-1.122877542E1,2.688865507E1,4.759371001E0,2.952518893E1
9.715119292E0,-7.472501868E0,2.100204555E1,9.133801085E-1,2.231050122E1
9.725063292E0,-3.851497216E0,1.976989454E1,-2.710788180E-1,2.014339209E1
9.735007292E0,-3.640042017E0,1.969191140E1,-1.297818750E-1,2.002593627E1
9.744951292E0,-4.596727774E0,1.815256756E1,4.133852828E-1,1.873009617E1
9.754895292E0,-4.749675148E0,1.530926422E1,2.096257363E0,1.616562031E1
9.764839292E0,-3.764423988E0,1.200649019E1,5.278859274E0,1.364525741E1
9.774783292E0,-2.378029861E0,8.820751684E0,5.640790229E0,1.073681520E1
9.784727292E0,-6.751369147E-1,5.386023535E0,2.202750217E0,5.858085684E0
9.794671292E0,7.928685553E-1,1.486396717E0,1.045148136E-1,1.687880059E0
9.804615292E0,1.509181709E0,-1.814516732E0,2.485533699E-1,2.373158060E0
9.814559292E0,2.074391846E0,-4.387965803E0,5.595680130E-1,4.885740659E0
9.824503292E0,2.596942014E0,-6.422092845E0,5.868866430E-1,6.952109052E0
9.834447292E0,2.938400405E0,-8.105444251E0,5.144432956E-1,8.636959844E0
9.844391292E0,3.036864593E0,-9.497047663E0,2.242477369E-1,9.973301756E0
9.854335292E0,2.967579473E0,-1.052780302E1,-2.956704163E-1,1.094205581E1
9.864279292E0,2.930504617E0,-1.125478969E1,-7.665279452E-1,1.165528692E1
9.874223292E0,3.032139165E0,-1.180804154E1,-1.049835995E0,1.223625222E1
9.884167292E0,3.221334014E0,-1.213097975E1,-1.182405969E0,1.260697213E1
9.894111292E0,3.466625295E0,-1.226424481E1,-1.449101422E0,1.282688920E1
9.904055292E0,3.724749461E0,-1.214220406E1,-1.715203528E0,1.281595885E1
9.913999292E0,3.773553246E0,-1.184359728E1,-1.511450282E0,1.252178033E1
9.923943292E0,3.604203555E0,-1.150527154E1,-1.412009609E0,1.213900027E1
9.933887292E0,3.304014228E0,-1.117162240E1,-1.422336962E0,1.173646878E1
9.943831292E0,2.836034077E0,-1.084384971E1,-1.118396353E0,1.126423438E1
9.953775292E0,2.353120284E0,-1.055572348E1,-6.363841275E-1,1.083353396E1
9.963719292E0,1.908343493E0,-1.033912039E1,-2.132643270E-1,1.051592445E1
9.973663292E0,1.427585569E0,-1.022008628E1,1.591209374E-1,1.032053699E1
9.983607292E0,9.322676383E-1,-1.027317082E1,2.989645549E-1,1.031971615E1
9.993551292E0,5.495868158E-1,-1.047634753E1,2.677592075E-1,1.049416972E1
1.000349529E1,2.532084113E-1,-1.075048254E1,4.424974000E-1,1.076256444E1
1.001343929E1,9.611653090E-3,-1.095539821E1,5.566666245E-1,1.096953600E1
1.002338329E1,-2.276736206E-1,-1.087880670E1,3.348542529E-1,1.088633997E1
1.003332729E1,-5.589191182E-1,-1.032841882E1,-3.802429721E-2,1.034360052E1
1.004327129E1,-9.766168687E-1,-9.287534909E0,-3.340900218E-1,9.344715156E0
1.005321529E1,-1.524832951E0,-7.619735343E0,-3.924500580E-1,7.780713288E0
1.006315929E1,-2.080516220E0,-4.892034969E0,-3.504107702E-1,5.327601861E0
1.007310329E1,-2.500685150E0,-4.182033885E-1,-1.271433190E-1,2.538599164E0
1.008304729E1,-2.997338877E0,6.479894326E0,4.289106636E-1,7.152414640E0
1.009299129E1,-2.976880054E0,1.463246070E1,1.409216248E0,1.499855365E1
1.010293529E1,-2.085848296E0,2.183155963E1,2.643342594E0,2.208970392E1
1.011287929E1,-1.357433599E0,2.604278749E1,6.282081851E0,2.682413016E1
1.012282329E1,-3.308045298E0,2.484744822E1,9.280126487E0,2.672937699E1
1.013276729E1,-7.608384728E0,2.249108346E1,8.497256232E0,2.521784520E1
1.014271129E1,-7.538191243E0,2.161994188E1,5.619693475E0,2.357598712E1
1.015265529E1,-5.234885289E0,2.183426572E1,2.100374680E0,2.255106998E1
1.016259929E1,-4.143881387E0,2.311688288E1,9.457216430E-1,2.350439143E1
1.017254329E1,-3.620930393E0,2.391177443E1,1.125596761E0,2.421055681E1
1.018248729E1,-2.993080934E0,2.254731730E1,2.361154212E0,2.286733697E1
1.019243129E1,-2.401882116E0,1.953451137E1,2.647640297E0,1.985890660E1
1.020237529E1,-1.655683551E0,1.572022174E1,2.163986685E0,1.595460742E1
1.021231929E1,-8.897553107E-1,1.133153439E1,1.803065545E0,1.150853516E1
1.022226329E1,-4.282475893E-1,7.070466031E0,1.190723560E0,7.182806449E0
1.023220729E1,1.271053120E-2,3.177146021E0,1.240955309E-1,3.179594014E0
1.024215129E1,3.973286093E-1,-4.640818119E-1,-4.709201672E-1,7.713674583E-1
1.025209529E1,5.390936950E-1,-3.692549429E0,-4.032684302E-1,3.753420936E0
1.026203929E1,5.750132138E-1,-6.411464362E0,-8.033142406E-2,6.437699014E0
1.027198329E1,6.009605256E-1,-8.525885369E0,2.014505943E-1,8.549412683E0
1.028192729E1,6.460652163E-1,-1.005501120E1,3.063391546E-1,1.008040149E1
1.029187129E1,9.306110490E-1,-1.149266260E1,2.015073305E-1,1.153203954E1
1.030181529E1,1.307080447E0,-1.257250300E1,-1.189393830E-1,1.264082425E1
1.031175929E1,1.453167868E0,-1.278559659E1,-3.673875761E-1,1.287315620E1
1.032170329E1,1.441558514E0,-1.265982064E1,-5.200753337E-1,1.275224012E1
1.033164729E1,1.585593562E0,-1.307094773E1,-5.230667692E-1,1.317715373E1
1.034159129E1,1.558540249E0,-1.355432769E1,-3.285339975E-1,1.364759252E1
1.035153529E1,1.368889025E0,-1.404880801E1,-2.488107204E-2,1.411536336E1
1.036147929E1,1.154467973E0,-1.442603528E1,2.372320457E-1,1.447409995E1
1.037142329E1,9.822639634E-1,-1.438049249E1,4.711370623E-1,1.442169812E1
1.038136729E1,9.219378740E-1,-1.353257137E1,6.413074100E-1,1.357909174E1
1.039131129E1,8.968125346E-1,-1.193765910E1,7.264270824E-1,1.199331789E1
1.040125529E1,1.001066855E0,-1.111529032E1,5.861710900E-1,1.117566152E1
1.041119929E1,1.130452435E0,-1.088732610E1,1.092903078E-1,1.094640291E1
1.042114329E1,1.161379820E0,-1.077240960E1,-4.404631537E-1,1.084378252E1
1.043108729E1,1.052464319E0,-1.068369447E1,-6.458354938E-1,1.075481809E1
1.044103129E1,8.679885388E-1,-1.054473305E1,-5.276802224E-1,1.059354736E1
1.045097529E1,7.958710275E-1,-1.033838247E1,-4.894610667E-1,1.038051709E1
1.046091929E1,7.646081581E-1,-1.010447397E1,-5.096164191E-1,1.014616818E1
1.047086329E1,6.904602742E-1,-9.901754508E0,-5.738083220E-1,9.942370629E0
1.048080729E1,5.159539238E-1,-9.775184509E0,-6.507389688E-1,9.810397639E0
1.049075129E1,2.778924322E-1,-9.724417813E0,-5.839263439E-1,9.745896366E0
1.050069529E1,5.782384649E-3,-9.544707733E0,-6.028234120E-1,9.563727056E0
1.051063929E1,-1.701194038E-1,-9.169400103E0,-5.175815693E-1,9.185571814E0
1.052058329E1,-1.875607710E-1,-8.463311976E0,-6.188278625E-1,8.487978355E0
1.053052729E1,-1.820407071E-1,-7.165091522E0,-1.040319725E0,7.242509266E0
1.054047129E1,-3.420507136E-1,-5.121216002E0,-1.274521104E0,5.288502252E0
1.055041529E1,-7.455226269E-1,-2.156263683E0,-9.170544988E-1,2.458915617E0
1.056035929E1,-1.206930726E0,1.935763426E0,1.514491712E-1,2.286219297E0
1.057030329E1,-1.611349231E0,7.544999741E0,1.853662233E0,7.934704223E0
1.058024729E1,-1.545292359E0,1.454844440E1,3.579167824E0,1.506172650E1
1.059019129E1,-1.071646402E0,2.145659640E1,5.016614576E0,2.206128684E1
1.060013529E1,-1.638656166E0,2.734062613E1,6.395002695E0,2.812634158E1
1.061007929E1,-4.352825791E0,2.894152594E1,7.606193191E0,3.023926572E1
1.062002329E1,-6.958308249E0,2.693890838E1,6.595316609E0,2.859407350E1
1.062996729E1,-6.526777886E0,2.431242097E1,3.474235446E0,2.541186642E1
1.063991075E1,-4.733670149E0,2.263247147E1,1.502729160E0,2.317098601E1
1.064985475E1,-4.482952360E0,2.236519524E1,3.308296144E-1,2.281245862E1
1.065979875E1,-4.872678931E0,2.207732044E1,1.858116496E-1,2.260941406E1
1.066974275E1,-4.599544963E0,2.092188023E1,1.413905423E0,2.146811623E1
1.067968675E1,-3.597207654E0,1.891338972E1,2.942470944E0,1.947599417E1
1.068963075E1,-2.182814866E0,1.613552491E1,4.041651592E0,1.677661445E1
1.069957475E1,-9.511982913E-1,1.269534599E1,4.700223491E0,1.357087649E1
1.070951875E1,-1.609956278E-1,8.998072007E0,4.131337940E0,9.902483153E0
1.071946275E1,4.560144085E-1,5.178047429E0,2.639868178E0,5.830011005E0
1.072940675E1,7.311568221E-1,1.712496852E0,1.412131524E0,2.336953403E0
1.073935075E1,8.306470502E-1,-1.374284543E0,4.772367315E-1,1.675227574E0
1.074929475E1,8.320815915E-1,-4.104435486E0,-4.558249587E-1,4.212662676E0
1.075923875E1,8.772801299E-1,-6.585627188E0,-1.244222294E0,6.759304328E0
1.076918275E1,9.250945665E-1,-8.869826195E0,-1.893013702E0,9.116639598E0
1.077912675E1,8.610060132E-1,-1.079150309E1,-2.284006634E0,1.106411120E1
1.078907075E1,7.808854908E-1,-1.240143920E1,-2.187741145E0,1.261711883E1
1.079901475E1,7.585699578E-1,-1.369944155E1,-1.949979616E0,1.385830248E1
1.080895875E1,7.731225081E-1,-1.460106817E1,-1.680183238E0,1.471774188E1
1.081890275E1,8.619031222E-1,-1.507911430E1,-1.504263908E0,1.517845101E1
1.082884675E1,1.046634060E0,-1.514438794E1,-1.458318973E0,1.525039748E1
1.083879075E1,1.488118284E0,-1.459916081E1,-1.340723718E0,1.473592659E1
1.084873475E1,1.965414511E0,-1.344770722E1,-1.251349612E0,1.364806065E1
1.085867875E1,2.025975439E0,-1.208866813E1,-1.104517402E0,1.230692619E1
1.086862275E1,1.812757159E0,-1.100048726E1,-8.514997561E-1,1.118131747E1
1.087856675E1,1.438938084E0,-1.041798062E1,-7.982180268E-1,1.054713302E1
1.088851075E1,1.091876599E0,-1.026121209E1,-9.079375201E-1,1.035900664E1
1.089845475E1,8.370081630E-1,-1.033469990E1,-1.077978644E0,1.042442529E1
1.090839875E1,6.201252866E-1,-1.045300778E1,-1.134822936E0,1.053269909E1
1.091834275E1,5.207616507E-1,-1.058629272E1,-1.243517851E0,1.067179099E1
1.092828675E1,5.517824453E-1,-1.070008539E1,-1.271321508E0,1.078946475E1
1.093823075E1,7.017608956E-1,-1.069639696E1,-1.246647427E0,1.079164057E1
1.094817475E1,9.251351316E-1,-1.048502596E1,-1.267111659E0,1.060175535E1
1.095811875E1,1.197504869E0,-1.013104722E1,-1.314335526E0,1.028589391E1
1.096806275E1,1.388544148E0,-9.659451154E0,-1.264907697E0,9.840378190E0
1.097800675E1,1.442277136E0,-9.101625026E0,-1.281375795E0,9.303852180E0
1.098795175E1,1.375808913E0,-8.423922792E0,-1.440886084E0,8.656297019E0
1.099789575E1,1.139977110E0,-7.452499713E0,-1.633985995E0,7.714221284E0
1.100783975E1,8.670515225E-1,-5.946877350E0,-2.032046164E0,6.344000329E0
1.101778375E1,5.847163028E-1,-3.537013493E0,-2.479824039E0,4.359115147E0
1.102772775E1,2.708968965E-1,2.953680056E-1,-2.041178931E0,2.080153555E0
1.103767175E1,2.170088840E-1,6.188167382E0,-7.668833828E-1,6.239280289E0
1.104761575E1,9.505663535E-1,1.460129504E1,1.292943342E0,1.468921699E1
1.105755975E1,2.045778204E0,2.401890945E1,4.760415899E0,2.457142200E1
1.106750375E1,3.240604683E0,3.084243002E1,9.195362910E0,3.234674184E1
1.107744775E1,2.115584896E0,3.160682483E1,1.253803367E1,3.406859791E1
1.108739175E1,-2.673852780E0,2.622323257E1,1.128575303E1,2.867360522E1
1.109733575E1,-5.997473307E0,2.210047308E1,6.681351956E0,2.385458154E1
1.110727975E1,-5.582287082E0,2.186628508E1,2.191218338E0,2.267372466E1
1.111722375E1,-3.273934397E0,2.345695694E1,1.168144172E0,2.371311950E1
1.112716775E1,-1.713147501E0,2.515087895E1,1.846705947E0,2.527670685E1
1.113711175E1,-1.474866885E0,2.523320540E1,3.123383796E0,2.546851809E1
1.114705575E1,-1.236034000E0,2.297203566E1,4.436136627E0,2.342907404E1
1.115699975E1,-7.385040678E-1,1.934826702E1,5.325013686E0,2.008124986E1
1.116694375E1,-2.317526382E-1,1.551402202E1,4.620059334E0,1.618899431E1
1.117688775E1,2.104866803E-1,1.153282128E1,3.066771639E0,1.193546646E1
1.118683175E1,5.965100636E-1,7.215071767E0,1.347512774E0,7.364025770E0
1.119677575E1,8.864263447E-1,2.875300469E0,2.538859574E-1,3.019530184E0
1.120671975E1,8.614995912E-1,-1.278583165E0,-3.298591228E-1,1.576630425E0
1.121666375E1,4.710440916E-1,-4.669842528E0,-1.161050622E0,4.835012960E0
1.122660775E1,-1.639866248E-2,-7.356667356E0,-2.075076409E0,7.643740290E0
1.123655175E1,-2.269313166E-1,-9.671390584E0,-2.556994421E0,1.000627374E1
1.124649575E1,-2.206949687E-1,-1.139995383E1,-2.379117444E0,1.164765442E1
1.125643975E1,-1.735383439E-1,-1.261554436E1,-1.831943774E0,1.274904282E1
1.126638375E1,-1.088494277E-1,-1.354737886E1,-1.548313469E0,1.363600370E1
1.127632775E1,5.681549415E-2,-1.424369571E1,-1.657275601E0,1.433989741E1
1.128627175E1,3.327113946E-1,-1.463118718E1,-1.815595397E0,1.474715979E1
1.129621575E1,7.397812459E-1,-1.468204743E1,-1.844080839E0,1.481588429E1
1.130615975E1,1.276476267E0,-1.423965177E1,-1.779594383E0,1.440708265E1
1.131610375E1,1.846230276E0,-1.331799259E1,-1.636834613E0,1.354461961E1
1.132604775E1,2.152860603E0,-1.224257971E1,-1.272909173E0,1.249543374E1
1.133599175E1,2.200565989E0,-1.135795211E1,-9.429969867E-1,1.160753247E1
1.134593575E1,1.973650753E0,-1.080017685E1,-7.600539811E-1,1.100530778E1
1.135587975E1,1.591166543E0,-1.070342298E1,-5.797841763E-1,1.083656883E1
1.136582375E1,1.222884781E0,-1.080494701E1,-4.680162571E-1,1.088399588E1
1.137576775E1,9.113865003E-1,-1.080034058E1,-4.332763410E-1,1.084738265E1
1.138571175E1,6.848697513E-1,-1.063642207E1,-4.961116898E-1,1.066998818E1
1.139565575E1,5.831860864E-1,-1.038068942E1,-7.303476405E-1,1.042267847E1
1.140559975E1,5.696620613E-1,-1.005493285E1,-7.982653892E-1,1.010264406E1
1.141554375E1,6.626769367E-1,-9.679207141E0,-7.510631561E-1,9.730893457E0
1.142548775E1,8.300412056E-1,-9.346629210E0,-8.384100330E-1,9.420794943E0
1.143543175E1,9.363489948E-1,-9.059033323E0,-8.686718591E-1,9.148629678E0
1.144537575E1,9.486796032E-1,-8.841294122E0,-8.817026715E-1,8.935651870E0
1.145531975E1,9.226219252E-1,-8.774194983E0,-9.837566113E-1,8.877246526E0
1.146526375E1,8.970099512E-1,-8.879382885E0,-1.129183297E0,8.995727996E0
1.147520775E1,8.950309610E-1,-8.882984769E0,-1.219606394E0,9.010878902E0
1.148515175E1,9.359005134E-1,-8.862932328E0,-1.193943403E0,8.991828516E0
1.149509575E1,1.068871167E0,-8.969027717E0,-1.099042508E0,9.099111946E0
1.150504075E1,1.205798779E0,-9.027329720E0,-8.968447673E-1,9.151555228E0
1.151498475E1,1.143415858E0,-8.870823730E0,-7.056362839E-1,8.972002900E0
1.152492875E1,9.813941900E-1,-8.307964320E0,-7.294426377E-1,8.397469396E0
1.153487275E1,8.080590369E-1,-7.281853402E0,-9.427794702E-1,7.386960234E0
1.154481675E1,7.128173956E-1,-5.766583718E0,-1.660368340E0,6.043047198E0
1.155476075E1,6.462822211E-1,-3.495964869E0,-2.250393330E0,4.207579021E0
1.156470475E1,5.708778436E-1,-4.328220123E-1,-2.159790870E0,2.275507198E0
1.157464875E1,5.038037020E-1,4.058538351E0,-7.259131122E-1,4.153613073E0
1.158459275E1,1.670875494E-1,1.126818332E1,2.660746247E0,1.157926786E1
1.159453675E1,-7.502506855E-1,2.130070963E1,6.472645533E0,2.227505886E1
1.160448075E1,-1.901017078E0,3.105325957E1,9.601853156E0,3.255939772E1
1.161442475E1,-3.428870116E0,3.587445728E1,1.315862088E1,3.836512920E1
1.162436875E1,-6.104347546E0,3.335542298E1,1.278394651E1,3.623915823E1
1.163431163E1,-7.654723912E0,2.856469628E1,5.904503748E0,3.015625700E1
1.164425562E1,-7.133514218E0,2.548795456E1,9.272163749E-2,2.646755466E1
1.165419962E1,-5.762620475E0,2.431086093E1,-2.736146092E0,2.513388647E1
1.166414363E1,-5.913537111E0,2.434639797E1,-2.519771047E0,2.518067238E1
1.167408762E1,-6.351774230E0,2.399628307E1,-2.646863495E-1,2.482411521E1
1.168403162E1,-5.702080743E0,2.277972775E1,2.538876239E0,2.361939063E1
1.169397563E1,-3.738939484E0,2.042628894E1,5.961727524E0,2.160451673E1
1.170391962E1,-1.275002184E0,1.704037452E1,7.455873556E0,1.864376691E1
1.171386362E1,1.008653617E0,1.298177418E1,4.894742814E0,1.391051222E1
1.172380763E1,2.663496484E0,8.655018203E0,4.954404294E-1,9.069124260E0
1.173375162E1,3.092423082E0,4.045920644E0,-2.881975651E0,5.851353521E0
1.174369562E1,2.588241942E0,-5.964604354E-1,-3.543251302E0,4.428249224E0
1.175363963E1,1.484433076E0,-4.165559939E0,-2.420244420E0,5.041132235E0
1.176358362E1,5.549840882E-1,-7.051357915E0,-1.122856609E0,7.161736015E0
1.177352762E1,1.686929025E-1,-9.688869081E0,-2.743986478E-1,9.694221783E0
1.178347163E1,1.271227075E-1,-1.181953365E1,2.168661388E-1,1.182220652E1
1.179341562E1,2.696681772E-1,-1.322748354E1,1.775414208E-1,1.323142331E1
1.180335962E1,5.512309067E-1,-1.412297409E1,7.491467312E-2,1.413392603E1
1.181330363E1,9.955090763E-1,-1.475803317E1,-2.111311166E-1,1.479307803E1
1.182324762E1,1.400648469E0,-1.501979664E1,-5.078716099E-1,1.509350989E1
1.183319162E1,1.693436245E0,-1.471723364E1,-6.358836059E-1,1.482798166E1
1.184313662E1,1.881634582E0,-1.389696284E1,-7.556450343E-1,1.404411351E1
1.185308063E1,1.900878207E0,-1.292601864E1,-8.466243477E-1,1.309244319E1
1.186302462E1,1.724439059E0,-1.202044164E1,-7.874925522E-1,1.216901195E1
1.187296862E1,1.544033599E0,-1.123230363E1,-5.535383642E-1,1.135143556E1
1.188291263E1,1.540874641E0,-1.074332438E1,-2.564752507E-1,1.085629278E1
1.189285662E1,1.593698095E0,-1.041765551E1,1.971330285E-2,1.053887132E1
1.190280062E1,1.647897545E0,-1.020242769E1,1.636599847E-1,1.033595093E1
1.191274463E1,1.649961904E0,-1.004748466E1,-2.577935055E-2,1.018209148E1
1.192268862E1,1.596991978E0,-9.957934556E0,-4.021315853E-1,1.009319344E1
1.193263262E1,1.452910298E0,-9.973288175E0,-5.875867009E-1,1.009567647E1
1.194257663E1,1.310919144E0,-9.916730397E0,-7.046631610E-1,1.002779143E1
1.195252062E1,1.271351621E0,-9.856003554E0,-8.917530119E-1,9.977593118E0
1.196246462E1,1.167984835E0,-9.663207990E0,-1.069759798E0,9.792148041E0
1.197240863E1,1.197638404E0,-9.477615026E0,-1.118074172E0,9.618191836E0
1.198235262E1,1.514628390E0,-9.428019528E0,-1.136466077E0,9.616299003E0
1.199229662E1,1.790537885E0,-9.369530999E0,-1.195570244E0,9.613715477E0
1.200224063E1,2.102701579E0,-9.351750201E0,-1.106838308E0,9.648921017E0
1.201218462E1,2.352514220E0,-9.401075558E0,-9.339360682E-1,9.735850316E0
1.202212862E1,2.398792740E0,-9.537444906E0,-6.080279821E-1,9.853261388E0
1.203207263E1,2.387296236E0,-9.546622696E0,-3.211068642E-1,9.845826417E0
1.204201662E1,2.276913815E0,-9.195276956E0,-1.296357677E-1,9.473872505E0
1.205196062E1,1.991016398E0,-8.022487464E0,-1.050206709E-1,8.266527732E0
1.206190463E1,1.398234446E0,-5.338145363E0,-3.061222047E-1,5.526713878E0
1.207184862E1,5.220623638E-1,-1.281060630E0,-3.303289466E-1,1.422245641E0
1.208179262E1,-3.384413736E-1,4.031280386E0,-1.475856234E-1,4.048153360E0
1.209173663E1,-6.765077944E-1,1.073696261E1,-3.015045123E-1,1.076247805E1
1.210168062E1,-4.705938560E-1,1.876772154E1,-4.405643106E-2,1.877367229E1
1.211162462E1,-5.791050223E-1,2.724599946E1,2.743567086E0,2.738990708E1
1.212156863E1,-1.468823496E0,3.218628390E1,6.379525115E0,3.284528360E1
1.213151262E1,-3.673811442E0,3.063969536E1,7.070614550E0,3.165882835E1
1.214145762E1,-5.848986774E0,2.538510671E1,5.560761142E0,2.663712360E1
1.215140162E1,-6.017150357E0,2.213813850E1,2.087195202E0,2.303605128E1
1.216134563E1,-5.391308248E0,2.209683143E1,-1.451104824E0,2.279126739E1
1.217128962E1,-4.978469095E0,2.298186366E1,-3.033674644E0,2.370979531E1
1.218123362E1,-4.859408382E0,2.346838240E1,-2.570779817E0,2.410368709E1
1.219117763E1,-4.130591251E0,2.229128176E1,-1.135767846E0,2.269918490E1
1.220112162E1,-2.693718696E0,1.953018209E1,4.794770922E-1,1.972090341E1
1.221106562E1,-1.272716361E0,1.629449550E1,1.931397164E0,1.645784571E1
1.222100963E1,-2.362906623E-1,1.292865223E1,3.333421045E0,1.335356048E1
1.223095362E1,5.012687878E-1,9.668101525E0,3.798650665E0,1.039967328E1
1.224089762E1,1.138206427E0,6.154806093E0,2.568606992E0,6.765714581E0
1.225084163E1,1.497920702E0,2.256703645E0,3.360079086E-1,2.729355068E0
1.226078562E1,1.670305098E0,-2.078829591E0,-1.440246398E0,3.030802085E0
1.227072962E1,1.418104893E0,-5.761469159E0,-2.408130158E0,6.403486489E0
1.228067363E1,9.763141291E-1,-8.477716007E0,-2.368246300E0,8.856266059E0
1.229061762E1,7.012268986E-1,-1.089545723E1,-1.592597941E0,1.103354321E1
1.230056162E1,4.911339551E-1,-1.280224478E1,-6.370962453E-1,1.282749296E1
1.231050563E1,4.673232159E-1,-1.410576808E1,2.615371853E-1,1.411593021E1
1.232044962E1,6.551682347E-1,-1.485509695E1,8.400881839E-1,1.489325011E1
1.233039362E1,1.015127947E0,-1.483463871E1,9.795607225E-1,1.490156131E1
1.234033763E1,1.468637993E0,-1.422236039E1,6.804885057E-1,1.431417120E1
1.235028162E1,1.943807880E0,-1.324215654E1,1.616884498E-1,1.338503800E1
1.236022562E1,2.415553929E0,-1.253152454E1,-4.253579684E-1,1.276929668E1
1.237016963E1,2.832692978E0,-1.228320499E1,-7.073658172E-1,1.262543626E1
1.238011362E1,3.089886267E0,-1.207060140E1,-8.429066880E-1,1.248828679E1
1.239005762E1,3.096656173E0,-1.152553916E1,-9.016851655E-1,1.196830683E1
1.240000262E1,2.805610430E0,-1.099574868E1,-9.297241726E-1,1.138605840E1
1.240994663E1,2.333486796E0,-1.072511732E1,-9.616107206E-1,1.101807593E1
1.241989062E1,1.787541626E0,-1.049245894E1,-9.435825853E-1,1.068538010E1
1.242983462E1,1.350856066E0,-1.028845661E1,-8.670088378E-1,1.041291774E1
1.243977863E1,1.185714031E0,-1.018406744E1,-7.228455167E-1,1.027830983E1
1.244972262E1,1.189727706E0,-1.005182213E1,-5.935251331E-1,1.013937139E1
1.245966662E1,1.320043578E0,-9.781786600E0,-5.722331551E-1,9.887027608E0
1.246961063E1,1.424655967E0,-9.493033549E0,-6.178343475E-1,9.619202143E0
1.247955462E1,1.442787452E0,-9.341084880E0,-7.116214938E-1,9.478602614E0
1.248949862E1,1.419025099E0,-9.249959532E0,-8.119396877E-1,9.393328996E0
1.249944263E1,1.387935453E0,-9.290188960E0,-7.921854544E-1,9.426639568E0
1.250938662E1,1.299738245E0,-9.364142790E0,-7.003220420E-1,9.479817543E0
1.251933062E1,1.115376412E0,-9.183627548E0,-5.052250139E-1,9.264897830E0
1.252927463E1,7.483243203E-1,-8.623368394E0,-1.655843765E-1,8.657360449E0
1.253921862E1,2.097054192E-1,-7.467252238E0,-5.752490759E-2,7.470417757E0
1.254916262E1,-4.791226047E-1,-5.355168362E0,-4.406987965E-1,5.394590076E0
1.255910663E1,-1.609479730E0,-1.837992718E0,-7.386147264E-1,2.552291901E0
1.256905062E1,-3.458971875E0,3.764275469E0,-7.190628067E-2,5.112673151E0
1.257899462E1,-5.182197783E0,1.163568316E1,1.202798572E0,1.279417918E1
1.258893863E1,-4.967765767E0,1.997685791E1,1.761794581E0,2.066052925E1
1.259888262E1,-2.500327300E0,2.560089470E1,1.934849214E0,2.579536949E1
1.260882662E1,2.744346812E-1,2.707743827E1,2.920448576E0,2.723585867E1
1.261877063E1,-9.855058059E-1,2.438218293E1,4.079491848E0,2.474074210E1
1.262871462E1,-4.041000212E0,2.093611469E1,3.638962913E0,2.163082597E1
1.263865975E1,-4.624569291E0,1.995040978E1,2.851128372E0,2.067690559E1
1.264860475E1,-3.773884783E0,2.049470136E1,3.950736744E0,2.121045287E1
1.265854875E1,-2.752968824E0,2.099882958E1,4.804255398E0,2.171659622E1
1.266849275E1,-2.488812379E0,2.071074662E1,4.733491225E0,2.139007134E1
1.267843675E1,-2.267191942E0,1.883851729E1,4.499981206E0,1.950076213E1
1.268838075E1,-1.608561717E0,1.510811649E1,4.547211798E0,1.585937546E1
1.269832475E1,-1.232642761E0,1.084392104E1,4.037772549E0,1.163673661E1
1.270826875E1,-1.170287030E0,7.346434729E0,3.055358166E0,8.042069913E0
1.271821275E1,-1.021669811E0,4.435065125E0,2.500207433E0,5.192749664E0
1.272815675E1,-8.611206186E-1,1.639918288E0,2.283958687E0,2.940633944E0
1.273810075E1,-6.116472624E-1,-1.178881706E0,1.823483876E0,2.255874087E0
1.274804475E1,-1.559635140E-1,-4.082632973E0,8.720050643E-1,4.177632037E0
1.275798875E1,3.001283701E-1,-6.728153070E0,-4.284338231E-1,6.748457328E0
1.276793275E1,6.196602868E-1,-9.006749275E0,-2.015854932E0,9.250361208E0
1.277787675E1,6.906678504E-1,-1.083666699E1,-3.310776533E0,1.135216344E1
1.278782075E1,7.853316405E-1,-1.239890151E1,-3.468694625E0,1.289888936E1
1.279776475E1,9.979247072E-1,-1.362562162E1,-2.958542601E0,1.397878366E1
1.280770875E1,1.189816145E0,-1.429232115E1,-2.364144332E0,1.453531165E1
1.281765275E1,1.516065782E0,-1.461429925E1,-1.956355566E0,1.482239944E1
1.282759675E1,1.917625948E0,-1.451727289E1,-1.756499489E0,1.474834879E1
1.283754075E1,2.236588492E0,-1.401334465E1,-1.445409344E0,1.426412859E1
1.284748475E1,2.461453257E0,-1.324156247E1,-1.123630196E0,1.351518677E1
1.285742875E1,2.573367502E0,-1.231140494E1,-1.050074562E0,1.262123483E1
1.286737275E1,2.446961810E0,-1.141000636E1,-1.099941371E0,1.172116625E1
1.287731675E1,1.987373583E0,-1.066777484E1,-1.094653149E0,1.090638984E1
1.288726175E1,1.289886856E0,-1.015160486E1,-1.079518655E0,1.029000729E1
1.289720575E1,8.237550102E-1,-9.984707787E0,-1.046992348E0,1.007318991E1
1.290714975E1,6.813067505E-1,-1.006514910E1,-1.065400699E0,1.014428332E1
1.291709375E1,6.316153577E-1,-1.022493596E1,-1.102676114E0,1.030359879E1
1.292703775E1,6.641703156E-1,-1.041800986E1,-1.041051139E0,1.049094081E1
1.293698175E1,7.500299531E-1,-1.037129879E1,-1.017883886E0,1.044808457E1
1.294692575E1,9.249714095E-1,-1.012697756E1,-9.259172697E-1,1.021119824E1
1.295686975E1,1.119761824E0,-9.899793352E0,-8.340151195E-1,9.997767559E0
1.296681375E1,1.289823852E0,-9.631320784E0,-8.669709040E-1,9.755902017E0
1.297675775E1,1.396025076E0,-9.256137700E0,-8.674975920E-1,9.400932039E0
1.298670175E1,1.417228249E0,-8.652101612E0,-8.768198079E-1,8.811141310E0
1.299664575E1,1.254367506E0,-7.436611074E0,-1.012684103E0,7.609346305E0
1.300658975E1,7.590166850E-1,-5.118337417E0,-1.118752741E0,5.293873057E0
1.301653375E1,-3.814616780E-1,-9.363666826E-1,-7.176565513E-1,1.239889714E0
1.302647775E1,-2.304998430E0,5.969259322E0,1.729345604E0,6.628401831E0
1.303642175E1,-4.360656382E0,1.426388030E1,5.266878330E0,1.581814188E1
1.304636575E1,-4.332869537E0,2.194041374E1,5.508831435E0,2.303264503E1
1.305630975E1,-3.069683260E0,2.834235708E1,6.564026989E0,2.925403580E1
1.306625375E1,-2.184791809E0,2.944901047E1,7.361960841E0,3.043379701E1
1.307619775E1,-4.073420100E0,2.543677973E1,6.372966294E0,2.653746811E1
1.308614175E1,-5.951324158E0,2.188386181E1,4.589570197E0,2.313840577E1
1.309608575E1,-6.452198989E0,1.941915165E1,1.826044664E0,2.054431215E1
1.310602975E1,-6.484878493E0,1.821940474E1,9.314385031E-1,1.936150655E1
1.311597475E1,-6.766449409E0,1.785885373E1,1.172202432E0,1.913367588E1
1.312591875E1,-6.720327156E0,1.734410930E1,2.135660288E0,1.872276607E1
1.313586275E1,-5.674025218E0,1.634601064E1,3.276915892E0,1.761036069E1
1.314580675E1,-3.676104135E0,1.440600857E1,3.597794130E0,1.529676263E1
1.315575075E1,-1.864553988E0,1.170716654E1,2.691543531E0,1.215642697E1
1.316569475E1,-7.631642613E-1,8.508628482E0,1.395489471E0,8.656013470E0
1.317563875E1,-2.507803550E-1,5.220405244E0,7.046304166E-1,5.273710812E0
1.318558275E1,9.029562771E-3,2.156495233E0,5.385344088E-2,2.157186458E0
1.319552675E1,2.432289684E-1,-7.806366187E-1,-4.180326498E-1,9.183164802E-1
1.320547075E1,4.373096041E-1,-3.557529618E0,-7.653047077E-1,3.665098630E0
1.321541475E1,6.473988931E-1,-6.093731341E0,-1.544844900E0,6.319749421E0
1.322535875E1,8.491934681E-1,-8.227217780E0,-2.181425421E0,8.553762845E0
1.323530275E1,9.326924385E-1,-9.857983421E0,-2.301408094E0,1.016593486E1
1.324524675E1,1.035040347E0,-1.119322435E1,-2.056402595E0,1.142752692E1
1.325519075E1,1.198563288E0,-1.225652648E1,-1.636618119E0,1.242326504E1
1.326513475E1,1.479303752E0,-1.310094746E1,-1.185789607E0,1.323741896E1
1.327507875E1,1.799760260E0,-1.370898421E1,-9.679820661E-1,1.386046083E1
1.328502275E1,2.083336332E0,-1.404953306E1,-1.071028644E0,1.424348174E1
1.329496675E1,2.367582934E0,-1.412505570E1,-1.298252614E0,1.438082429E1
1.330491075E1,2.664693117E0,-1.381311961E1,-1.506286021E0,1.414820697E1
1.331485475E1,2.798170432E0,-1.321510265E1,-1.528927610E0,1.359434866E1
1.332479875E1,2.667130237E0,-1.241802307E1,-1.356303624E0,1.277342711E1
1.333474375E1,2.368563950E0,-1.145902123E1,-1.231813480E0,1.176590954E1
1.334468775E1,1.992716330E0,-1.052262473E1,-1.260294098E0,1.078354723E1
1.335463175E1,1.562705805E0,-9.683054609E0,-1.379556978E0,9.904886342E0
1.336457575E1,1.247088161E0,-9.067649195E0,-1.438755212E0,9.265392996E0
1.337451975E1,1.158117439E0,-8.733596596E0,-1.372346338E0,8.916292950E0
1.338446375E1,1.216266756E0,-8.577301691E0,-1.270668374E0,8.755798492E0
1.339440775E1,1.334418812E0,-8.509343596E0,-1.049210490E0,8.677006664E0
1.340435175E1,1.383676195E0,-8.243556654E0,-8.464082931E-1,8.401618483E0
1.341429575E1,1.484540373E0,-7.927387179E0,-8.090980871E-1,8.105675007E0
1.342423975E1,1.589448192E0,-7.648800098E0,-9.218727507E-1,7.866405651E0
1.343418375E1,1.681972632E0,-7.236954387E0,-1.122931015E0,7.514220838E0
1.344412775E1,1.698221168E0,-6.273225659E0,-1.392859393E0,6.646606095E0
1.345407175E1,1.488567789E0,-3.900120322E0,-1.730981655E0,4.519189095E0
1.346401575E1,1.109919206E0,1.127796337E0,-1.565558808E0,2.225942408E0
1.347395975E1,-1.895228773E-1,1.001458589E1,1.794377752E0,1.017583613E1
1.348390375E1,-4.000214129E0,2.158355115E1,9.595289657E0,2.395664786E1
1.349384775E1,-9.401123505E0,2.977727082E1,1.349932060E1,3.401909224E1
1.350379175E1,-1.239948389E1,2.968850540E1,1.026776682E1,3.377249753E1
1.351373575E1,-1.025800314E1,2.303468039E1,4.017178364E0,2.553352406E1
1.352368075E1,-6.361761274E0,1.620659782E1,1.285026650E0,1.745786679E1
1.353362475E1,-5.053090092E0,1.364464145E1,9.629915406E-1,1.458208875E1
1.354356875E1,-5.961412944E0,1.379786890E1,2.377705926E-1,1.503250363E1
1.355351275E1,-7.686964874E0,1.411545223E1,-1.936340547E0,1.618903442E1
1.356345675E1,-7.917919368E0,1.384183996E1,-3.247107956E0,1.627371165E1
1.357340075E1,-5.900423561E0,1.221762847E1,-2.699875814E0,1.383382713E1
1.358334475E1,-3.652031733E0,1.014872920E1,-1.359398263E0,1.087115467E1
1.359328875E1,-2.259916398E0,7.961801552E0,-1.756012416E-1,8.278184696E0
1.360323275E1,-1.534483050E0,5.635520718E0,7.691409928E-1,5.891121274E0
1.361317675E1,-1.110181600E0,3.302179372E0,1.375569177E0,3.745541663E0
1.362312075E1,-8.740350714E-1,8.939457178E-1,2.239629775E0,2.564959606E0
1.363306475E1,-8.081641406E-1,-1.460904611E0,2.894562367E0,3.341536003E0
1.364300867E1,-7.287574902E-1,-3.669532449E0,3.186394562E0,4.914230985E0
1.365295267E1,-5.994547945E-1,-5.497241085E0,3.195999198E0,6.386972402E0
1.366289667E1,-8.749320343E-2,-7.045997187E0,2.800343843E0,7.582589074E0
1.367284067E1,8.366503134E-1,-8.281478187E0,5.962265468E-1,8.344959605E0
1.368278467E1,2.423898929E0,-9.068408164E0,-6.020716574E0,1.115169676E1
1.369272867E1,3.240970134E0,-9.913453617E0,-9.513955472E0,1.411721639E1
1.370267267E1,2.999326930E0,-1.088985443E1,-7.508375121E0,1.356320716E1
1.371261767E1,2.499471853E0,-1.165079353E1,-4.750325943E0,1.282785820E1
1.372256167E1,2.064416058E0,-1.204440821E1,-2.407759883E0,1.245499460E1
1.373250567E1,1.748300523E0,-1.222696998E1,-1.070084976E0,1.239759781E1
1.374244967E1,1.525390629E0,-1.233824132E1,-7.368170730E-1,1.245399193E1
1.375239367E1,1.373466810E0,-1.226050727E1,-8.618057661E-1,1.236726157E1
1.376233767E1,1.319503734E0,-1.195886812E1,-7.685691351E-1,1.205596597E1
1.377228167E1,1.267647994E0,-1.162713219E1,-2.204521631E-1,1.169810812E1
1.378222567E1,1.217406452E0,-1.132965276E1,5.900815617E-1,1.141014050E1
1.379216967E1,1.212186862E0,-1.108969589E1,1.083125948E0,1.120820743E1
1.380211367E1,1.364747442E0,-1.092251347E1,8.806960733E-1,1.104262023E1
1.381205767E1,1.713947546E0,-1.073921963E1,1.658387303E-2,1.087514273E1
1.382200167E1,2.113876924E0,-1.043539129E1,-1.078002618E0,1.070177353E1
1.383194567E1,2.284927278E0,-1.000073851E1,-1.919183500E0,1.043642318E1
1.384188967E1,2.122395440E0,-9.388783541E0,-2.526307064E0,9.951685595E0
1.385183367E1,1.607280592E0,-8.325963804E0,-2.949837266E0,8.978115841E0
1.386177767E1,9.947701344E-1,-6.704250237E0,-3.208774195E0,7.498851291E0
1.387172167E1,5.825835308E-1,-4.518739951E0,-2.606123897E0,5.248837593E0
1.388166567E1,5.423996742E-1,-1.956963676E0,-4.510983619E-1,2.080238921E0
1.389160967E1,1.028848877E0,1.013912457E0,2.831572944E0,3.178734625E0
1.390155467E1,2.183085446E0,4.882320405E0,6.185216877E0,8.176785579E0
1.391149867E1,3.858778461E0,9.677403860E0,9.340678498E0,1.399251913E1
1.392144267E1,5.822787155E0,1.432894928E1,1.196789506E1,1.955643500E1
1.393138667E1,6.558544639E0,1.897243490E1,1.178905797E1,2.327981275E1
1.394133067E1,3.855392631E0,2.630058422E1,8.530688857E0,2.791697396E1
1.395127467E1,-8.627485565E-1,3.074552061E1,5.186744578E0,3.119188503E1
1.396121867E1,-4.866591687E0,2.722719482E1,4.070212902E0,2.795658215E1
1.397116267E1,-4.994040815E0,1.951604820E1,4.781771977E0,2.070463533E1
1.398110667E1,-2.549546823E0,1.402757326E1,5.428087234E0,1.525572455E1
1.399105067E1,-1.152463693E0,1.205856549E1,5.165402241E0,1.316884788E1
1.400099467E1,-5.621889908E-1,1.111065465E1,4.380578723E0,1.195626084E1
1.401093867E1,-1.126611910E-1,9.818048108E0,3.820212858E0,1.053569112E1
1.402088267E1,4.951126199E-2,8.134230094E0,3.003716727E0,8.671243553E0
1.403082667E1,-5.594645172E-2,6.268787037E0,1.904269738E0,6.551874858E0
1.404077067E1,-2.173611422E-1,4.242998709E0,7.789208995E-1,4.319375149E0
1.405071467E1,-1.699595190E-1,1.891827448E0,4.550990269E-2,1.899991706E0
1.406065867E1,7.109742802E-2,-5.148110855E-1,-2.136938050E-1,5.619166667E-1
1.407060267E1,3.882042485E-1,-2.604483753E0,-2.899844742E-1,2.649175183E0
1.408054667E1,7.671862686E-1,-4.417970206E0,-3.606381351E-1,4.498565924E0
1.409049067E1,1.400675659E0,-6.264775262E0,-9.085872920E-1,6.483427508E0
1.410043567E1,1.863107387E0,-7.912161614E0,-1.601293336E0,8.284781886E0
1.411037967E1,2.188841445E0,-9.280060998E0,-1.917669218E0,9.725636958E0
1.412032367E1,2.313112611E0,-1.042923300E1,-2.210788969E0,1.090903198E1
1.413026767E1,2.128706340E0,-1.130266084E1,-2.544958805E0,1.177957334E1
1.414021167E1,1.661727233E0,-1.194495175E1,-2.737410260E0,1.236675482E1
1.415015567E1,1.097191133E0,-1.243591204E1,-2.834558825E0,1.280197096E1
1.416009967E1,5.763922065E-1,-1.275288376E1,-2.916283019E0,1.309476914E1
1.417004367E1,1.613822749E-1,-1.293376737E1,-2.926807423E0,1.326177154E1
1.417998767E1,-1.811651596E-1,-1.289904193E1,-2.805407531E0,1.320183377E1
1.418993167E1,-4.249525371E-1,-1.259875232E1,-2.768449035E0,1.290633390E1
1.419987567E1,-5.576986581E-1,-1.196693728E1,-2.771286689E0,1.229628585E1
1.420981967E1,-5.774113762E-1,-1.125492885E1,-2.714676578E0,1.159207903E1
1.421976367E1,-5.550188792E-1,-1.066354614E1,-2.560973452E0,1.098079447E1
1.422970767E1,-4.989168915E-1,-1.021136575E1,-2.217693946E0,1.046131325E1
1.423965167E1,-4.113329101E-1,-9.785516539E0,-1.808616307E0,9.959750079E0
1.424959567E1,-3.665072778E-1,-9.302423674E0,-1.444751093E0,9.421078469E0
1.425953967E1,-3.803283414E-1,-8.610076504E0,-1.249069344E0,8.708515446E0
1.426948367E1,-4.867266163E-1,-7.480680369E0,-1.007504054E0,7.563897540E0
1.427942767E1,-5.655508840E-1,-5.643489304E0,-7.477701505E-1,5.720837309E0
1.428937267E1,-6.771882641E-1,-2.486944778E0,-4.584719932E-1,2.617952414E0
1.429931667E1,-1.366248423E0,3.151496040E0,8.978329468E-1,3.550305063E0
1.430926067E1,-2.370190207E0,1.093362552E1,3.032766572E0,1.159136065E1
1.431920467E1,-2.682248797E0,1.825967568E1,3.541950881E0,1.879243547E1
1.432914867E1,-9.898292372E-1,2.290932076E1,3.064805220E0,2.313460116E1
1.433909267E1,2.085630487E0,2.409934141E1,3.456967449E0,2.443519460E1
1.434903667E1,2.669211553E0,2.157708179E1,4.815672086E0,2.226849448E1
1.435898067E1,-1.968456379E-1,1.901057746E1,4.807879502E0,1.961011241E1
1.436892467E1,-2.816555248E0,1.848912043E1,3.281962331E0,1.898820250E1
1.437886867E1,-3.589561250E0,1.873110160E1,1.117756668E0,1.910467213E1
1.438881267E1,-3.248564790E0,1.826443064E1,-8.298076093E-3,1.855108268E1
1.439875667E1,-2.487599374E0,1.652004834E1,-8.134587944E-2,1.670648870E1
1.440870067E1,-1.461377066E0,1.351359365E1,4.465574142E-1,1.359971506E1
1.441864467E1,-3.703851512E-1,9.905866270E0,1.697325959E0,1.005705161E1
1.442858867E1,3.405006167E-1,6.346866662E0,2.508908674E0,6.833248117E0
1.443853267E1,5.892709914E-1,3.222858968E0,2.001786093E0,3.839428055E0
1.444847667E1,7.244706041E-1,4.751353884E-1,3.681190628E-1,9.413410316E-1
1.445842067E1,8.575584948E-1,-2.142328014E0,-2.215816551E0,3.199190347E0
1.446836467E1,8.500623643E-1,-4.514779047E0,-4.713570346E0,6.582065122E0
1.447830867E1,7.492674762E-1,-6.480018872E0,-5.429413383E0,8.487082892E0
1.448825267E1,5.936110872E-1,-7.955974801E0,-4.420251789E0,9.120774914E0
1.449819767E1,4.040665752E-1,-9.064729680E0,-3.035106627E0,9.567887239E0
1.450814167E1,3.711008504E-1,-9.981954918E0,-2.247219023E0,1.023851225E1
1.451808567E1,5.807349336E-1,-1.082781664E1,-2.109588869E0,1.104668419E1
1.452802967E1,7.841692141E-1,-1.142050913E1,-2.172830014E0,1.165178701E1
1.453797367E1,7.844893491E-1,-1.175332680E1,-2.325788644E0,1.200688999E1
1.454791767E1,6.397207680E-1,-1.184528713E1,-2.475135741E0,1.211801827E1
1.455786167E1,3.317327169E-1,-1.174658730E1,-2.388540232E0,1.199155887E1
1.456780567E1,-2.505561143E-2,-1.156319406E1,-2.126603097E0,1.175714784E1
1.457774967E1,-3.216407150E-1,-1.135767378E1,-1.975942130E0,1.153276003E1
1.458769367E1,-4.787308413E-1,-1.117052663E1,-2.011011537E0,1.136019436E1
1.459763767E1,-5.668097895E-1,-1.099015640E1,-2.122424092E0,1.120756419E1
1.460758167E1,-6.391418937E-1,-1.081686130E1,-2.266188121E0,1.107016709E1
1.461752567E1,-6.860608292E-1,-1.062309159E1,-2.360850888E0,1.090386956E1
1.462746967E1,-7.172542629E-1,-1.046035188E1,-2.437274728E0,1.076446577E1
1.463741350E1,-7.129884267E-1,-1.029390504E1,-2.550037989E0,1.062899465E1
1.464735750E1,-6.818388471E-1,-9.996125060E0,-2.766405433E0,1.039424935E1
1.465730150E1,-5.706654435E-1,-9.416289428E0,-3.200797131E0,9.961790397E0
1.466724550E1,-4.039034379E-1,-8.387072470E0,-3.401904804E0,9.059750487E0
1.467718950E1,-2.786952366E-1,-6.751997430E0,-2.774378404E0,7.305088354E0
1.468713350E1,2.938225865E-2,-4.400365409E0,-1.459586649E0,4.636213135E0
1.469707750E1,6.894039747E-1,-7.587212545E-1,7.603301159E-1,1.276337599E0
1.470702150E1,1.694985903E0,4.775281860E0,5.442097163E0,7.435907180E0
1.471696650E1,3.371548692E0,1.180203995E1,1.258319756E1,1.757817819E1
1.472691050E1,6.429811170E0,1.882528153E1,1.960552463E1,2.793045457E1
1.473685450E1,8.771270791E0,2.293845159E1,2.056852831E1,3.203392123E1
1.474679850E1,6.753307207E0,2.165970996E1,1.306180502E1,2.617939924E1
1.475674250E1,1.477793709E0,1.770478427E1,3.599530753E0,1.812732418E1
1.476668650E1,-3.248440829E0,1.497812470E1,-1.237374035E0,1.537620506E1
1.477663050E1,-4.091200021E0,1.395060051E1,8.135698915E-2,1.453835587E1
1.478657450E1,-6.845981482E-1,1.399912773E1,1.879705001E0,1.414134161E1
1.479651850E1,1.381606719E0,1.390804682E1,3.236636177E0,1.434637296E1
1.480646250E1,1.602865652E0,1.351755338E1,3.955240270E0,1.417523733E1
1.481640650E1,1.547584613E0,1.285961298E1,4.218814040E0,1.362215314E1
1.482635050E1,1.495412539E0,1.155164113E1,4.413211449E0,1.245604699E1
1.483629450E1,1.544828236E0,9.537519166E0,4.669839604E0,1.073117738E1
1.484623850E1,1.569596457E0,7.183727767E0,4.515822482E0,8.629150037E0
1.485618250E1,1.548113786E0,4.769269753E0,4.400094098E0,6.671088242E0
1.486612650E1,1.499988278E0,2.358192013E0,4.237751418E0,5.076373852E0
1.487607050E1,1.403810644E0,8.576578975E-2,3.368573921E0,3.650387699E0
1.488601450E1,1.409964838E0,-1.994250786E0,1.718685984E0,2.986455851E0
1.489595850E1,1.331765930E0,-4.031985560E0,-4.953663160E-1,4.275031677E0
1.490590250E1,8.073586866E-1,-5.926720244E0,-2.539999782E0,6.498418253E0
1.491584650E1,1.551181711E-1,-7.577664626E0,-3.598418028E0,8.390093869E0
1.492579050E1,1.014138342E-1,-8.958932499E0,-3.330824296E0,9.558616364E0
1.493573450E1,4.157636377E-1,-9.892691324E0,-2.444633741E0,1.019874674E1
1.494567850E1,7.669614431E-1,-1.059904433E1,-1.725110027E0,1.076587085E1
1.495562350E1,1.008227209E0,-1.120084912E1,-1.519213046E0,1.134828407E1
1.496556750E1,1.108909246E0,-1.157385236E1,-1.714809572E0,1.175262992E1
1.497551150E1,1.127982863E0,-1.183407451E1,-1.987884483E0,1.205277352E1
1.498545550E1,1.110591782E0,-1.205644646E1,-2.314470627E0,1.232672258E1
1.499539950E1,9.643862477E-1,-1.221981299E1,-2.555506890E0,1.252136118E1
1.500534350E1,7.837280416E-1,-1.223483331E1,-2.612306158E0,1.253513140E1
1.501528750E1,6.087559970E-1,-1.211287443E1,-2.393730951E0,1.236213002E1
1.502523150E1,4.634685121E-1,-1.180445018E1,-1.949095955E0,1.197325445E1
1.503517550E1,4.226166110E-1,-1.136467407E1,-1.589622001E0,1.148308842E1
1.504511950E1,3.555276686E-1,-1.090281888E1,-1.436300844E0,1.100276418E1
1.505506350E1,1.047455777E-1,-1.038132793E1,-1.242465645E0,1.045593909E1
1.506500750E1,-2.148951155E-1,-9.854711319E0,-9.729433554E-1,9.904955016E0
1.507495150E1,-4.350348911E-1,-9.347995704E0,-8.155189146E-1,9.393580262E0
1.508489550E1,-6.061074641E-1,-8.803664950E0,-8.827804595E-1,8.868550285E0
1.509483950E1,-7.386898631E-1,-8.010891266E0,-1.114701205E0,8.121736290E0
1.510478350E1,-8.014614773E-1,-6.625569518E0,-1.361823688E0,6.811393081E0
1.511472750E1,-1.064636468E0,-4.227493647E0,-1.175348234E0,4.515151915E0
1.512467150E1,-1.653820628E0,-2.831186736E-1,-3.077170327E-1,1.705863015E0
1.513461550E1,-2.350649105E0,5.490792775E0,6.982934967E-1,6.013482379E0
1.514455950E1,-2.890488612E0,1.258733388E1,1.938897388E0,1.305967923E1
1.515450350E1,-2.464223375E0,1.927491838E1,3.886403047E0,1.981663453E1
1.516444750E1,-1.311464982E0,2.389082268E1,5.520163924E0,2.455531630E1
1.517439150E1,-1.407563971E0,2.464607245E1,6.341819930E0,2.548781676E1
1.518433550E1,-1.884111462E0,2.053607626E1,5.314533137E0,2.129611623E1
1.519427950E1,-2.321177091E0,1.718307581E1,3.471393700E0,1.768322741E1
1.520422350E1,-2.770820666E0,1.720370011E1,2.372636390E0,1.758619197E1
1.521416750E1,-2.642821607E0,1.766001331E1,1.792047490E0,1.794636483E1
1.522411150E1,-2.371874498E0,1.709631249E1,1.384118098E0,1.731546916E1
1.523405650E1,-2.254576720E0,1.561785103E1,9.272359630E-1,1.580696535E1
1.524400050E1,-1.841175942E0,1.328998677E1,1.023225025E0,1.345587851E1
1.525394450E1,-1.243141144E0,1.042269464E1,1.775307497E0,1.064564137E1
1.526388850E1,-8.177155674E-1,7.320811061E0,2.120982753E0,7.665605076E0
1.527383250E1,-4.529943216E-1,4.171791317E0,1.495863798E0,4.454958490E0
1.528377650E1,-2.313102964E-1,1.225560029E0,1.094989072E-1,1.251995147E0
1.529372050E1,-2.004855296E-1,-1.352188500E0,-1.264575721E0,1.862192241E0
1.530366450E1,-2.795890018E-1,-3.415422397E0,-2.052274607E0,3.994384962E0
1.531360850E1,-2.766039982E-1,-5.148615469E0,-2.293390976E0,5.643083660E0
1.532355250E1,-8.604557902E-2,-6.584781681E0,-2.070571568E0,6.903189136E0
1.533349650E1,1.137686902E-1,-7.703708961E0,-1.707566626E0,7.891505487E0
1.534344050E1,2.464604321E-1,-8.589802453E0,-1.486351694E0,8.720934026E0
1.535338450E1,2.384409758E-1,-9.144379283E0,-1.588005538E0,9.284303321E0
1.536332850E1,2.168390223E-1,-9.445741269E0,-1.742481959E0,9.607564242E0
1.537327250E1,3.668610343E-1,-9.767753282E0,-1.823626256E0,9.943299448E0
1.538321650E1,6.757787928E-1,-1.003091249E1,-1.831545724E0,1.021912139E1
1.539316050E1,9.978223810E-1,-1.010504349E1,-1.925337402E0,1.033510897E1
1.540310450E1,1.265354424E0,-1.026253005E1,-2.079017871E0,1.054717783E1
1.541304850E1,1.397885660E0,-1.046343570E1,-2.223036693E0,1.078793137E1
1.542299250E1,1.371027644E0,-1.071255282E1,-2.388468457E0,1.106088994E1
1.543293650E1,1.196601985E0,-1.082427206E1,-2.498331061E0,1.117310969E1
1.544288050E1,1.014773751E0,-1.089516487E1,-2.567311249E0,1.123946041E1
1.545282450E1,8.546673390E-1,-1.103756913E1,-2.564599310E0,1.136378274E1
1.546276850E1,5.916753665E-1,-1.099932132E1,-2.373529990E0,1.126804304E1
1.547271250E1,3.237439585E-1,-1.095845630E1,-2.128047359E0,1.116786283E1
1.548265650E1,7.660291046E-2,-1.084639559E1,-1.969836906E0,1.102408376E1
1.549260050E1,-1.751296636E-1,-1.051791655E1,-1.853919072E0,1.068149123E1
1.550254450E1,-3.652571431E-1,-9.899235528E0,-1.676447598E0,1.004682802E1
1.551248850E1,-4.285453588E-1,-8.985729704E0,-1.495778575E0,9.119448612E0
1.552243250E1,-3.995554483E-1,-7.646545411E0,-1.151657070E0,7.743101142E0
1.553237650E1,-2.788756415E-1,-5.760734164E0,-7.648836350E-1,5.817978747E0
1.554232050E1,-4.135925665E-1,-2.766175053E0,-2.839992642E-2,2.797068071E0
1.555226450E1,-7.744651750E-1,2.135640553E0,1.754120257E0,2.870138456E0
1.556220950E1,-9.762397233E-1,9.166304002E0,4.165332190E0,1.011554078E1
1.557215350E1,-9.465589643E-1,1.647235494E1,5.993201916E0,1.755428495E1
1.558209750E1,-5.871045980E-1,2.168966642E1,5.079321871E0,2.228420588E1
1.559204150E1,5.551902026E-2,2.427088001E1,4.150428222E0,2.462325635E1
1.560198550E1,1.592164662E-1,2.257424022E1,4.276972786E0,2.297638282E1
1.561192950E1,-1.150166615E0,1.846539009E1,3.782048081E0,1.888378675E1
1.562187350E1,-2.925658737E0,1.646904658E1,3.219738894E0,1.703395705E1
1.563181750E1,-2.893062556E0,1.626543484E1,2.073400743E0,1.665032048E1
1.564176113E1,-2.209880019E0,1.577703680E1,1.173545245E0,1.597421886E1
1.565170512E1,-2.273897967E0,1.446869189E1,9.538081960E-1,1.467730926E1
1.566164912E1,-2.123761935E0,1.250459110E1,1.563864285E0,1.277970402E1
1.567159313E1,-1.568976652E0,9.953171414E0,1.957504544E0,1.026445970E1
1.568153712E1,-8.822790608E-1,6.956871588E0,2.410937845E0,7.415463567E0
1.569148112E1,-3.306509454E-1,3.879659160E0,2.611503043E0,4.688393477E0
1.570142513E1,-8.659550965E-2,1.259066913E0,1.643871006E0,2.072452691E0
1.571136912E1,1.141917728E-1,-1.161077519E0,-2.931163891E-1,1.202937232E0
1.572131312E1,1.626470277E-1,-3.329668302E0,-2.592703367E0,4.223180769E0
1.573125713E1,1.119642395E-1,-5.020481924E0,-4.303350745E0,6.613365435E0
1.574120112E1,1.493773930E-1,-6.271214216E0,-4.364386321E0,7.641878651E0
1.575114512E1,4.007930480E-1,-7.187444842E0,-3.412901663E0,7.966674098E0
1.576108913E1,8.652633709E-1,-8.022197442E0,-2.498076707E0,8.446580357E0
1.577103312E1,1.291558429E0,-8.996463438E0,-2.111302249E0,9.330706015E0
1.578097712E1,1.528327978E0,-9.960018504E0,-2.032689358E0,1.027957105E1
1.579092113E1,1.594719896E0,-1.075294889E1,-2.109801269E0,1.107340521E1
1.580086512E1,1.491382638E0,-1.134547883E1,-2.272468762E0,1.166654303E1
1.581080912E1,1.337026378E0,-1.171240214E1,-2.523790423E0,1.205560125E1
1.582075313E1,1.156908747E0,-1.187625632E1,-2.768982886E0,1.224953747E1
1.583069712E1,9.575134304E-1,-1.180375202E1,-2.753616403E0,1.215844550E1
1.584064112E1,8.779746330E-1,-1.152616247E1,-2.671903611E0,1.186433014E1
1.585058513E1,9.168065768E-1,-1.120915100E1,-2.690969920E0,1.156403561E1
1.586052912E1,9.457385999E-1,-1.094612336E1,-2.586733945E0,1.128730395E1
1.587047312E1,9.185847151E-1,-1.079587798E1,-2.286533947E0,1.107352775E1
1.588041713E1,8.478126481E-1,-1.070167934E1,-1.997753999E0,1.091951226E1
1.589036112E1,6.787421617E-1,-1.060486231E1,-1.689100388E0,1.075996541E1
1.590030512E1,4.944350007E-1,-1.040901450E1,-1.348036392E0,1.050758064E1
1.591024913E1,4.035944125E-1,-1.013271836E1,-9.739531696E-1,1.018741648E1
1.592019312E1,5.177142280E-1,-9.686033181E0,-6.693098719E-1,9.722923558E0
1.593013712E1,7.030455288E-1,-8.799706385E0,-4.047004133E-1,8.837018044E0
1.594008113E1,8.198948246E-1,-7.286920014E0,-1.057998124E-1,7.333663778E0
1.595002512E1,7.883780399E-1,-4.860758797E0,5.174392627E-1,4.951389644E0
1.595996912E1,6.704040322E-1,-1.063695066E0,2.066378822E0,2.418844806E0
1.596991313E1,7.580423927E-1,4.720552506E0,4.775708122E0,6.757635111E0
1.597985712E1,1.536671955E0,1.246958148E1,8.051989006E0,1.492267905E1
1.598980112E1,3.263471681E0,2.040763866E1,1.140100867E1,2.360307102E1
1.599974513E1,5.041672819E0,2.588859642E1,1.319050341E1,2.948944336E1
1.600968912E1,4.700444224E0,2.749956280E1,1.103507705E1,3.000155089E1
1.601963312E1,1.082921296E0,2.423241235E1,7.259298352E0,2.531955646E1
1.602957712E1,-3.701551217E0,2.107706299E1,5.380483882E0,2.206566728E1
1.603952112E1,-5.565770452E0,2.059925426E1,5.469780221E0,2.202783630E1
1.604946512E1,-2.699440196E0,2.009785317E1,4.304319629E0,2.073011932E1
1.605940912E1,-9.276762584E-1,1.929250096E1,2.091873998E0,1.942774082E1
1.606935312E1,-1.436492778E0,1.787568435E1,1.145259047E0,1.796984198E1
1.607929712E1,-2.213018512E0,1.591092049E1,1.150242044E0,1.610521340E1
1.608924112E1,-2.048108027E0,1.326880581E1,1.334823147E0,1.349213501E1
1.609918513E1,-1.091585700E0,9.990643880E0,1.947714550E0,1.023709512E1
1.610912912E1,-7.028528631E-2,6.461369178E0,4.041239364E0,7.621407171E0
1.611907412E1,6.948164499E-1,3.007206638E0,4.979143279E0,5.858150686E0
1.612901813E1,1.432539183E0,-1.295988572E-1,3.073001263E0,3.392978210E0
1.613896112E1,2.090784515E0,-3.287196466E0,-3.534859671E-1,3.911776173E0
1.614890612E1,2.208256540E0,-6.331154024E0,-3.453866086E0,7.542486272E0
1.615885013E1,1.749918448E0,-8.548918136E0,-3.832051131E0,9.530521064E0
1.616879412E1,1.083224474E0,-1.007567292E1,-2.133696354E0,1.035592682E1
1.617873812E1,7.068301392E-1,-1.145017673E1,-4.826648480E-1,1.148212182E1
1.618868213E1,5.363820487E-1,-1.265861729E1,1.808616892E-2,1.266998912E1
1.619862612E1,2.670475831E-1,-1.346050210E1,-3.705384944E-1,1.346824896E1
1.620857012E1,1.103808135E-1,-1.402311067E1,-9.170287710E-1,1.405349631E1
1.621851413E1,-2.007142654E-2,-1.430212459E1,-1.269290331E0,1.435835188E1
1.622845812E1,-1.949020234E-1,-1.403016709E1,-1.566879548E0,1.411873531E1
1.623840212E1,-3.658780077E-2,-1.312939650E1,-1.942717374E0,1.327239774E1
1.624834613E1,2.401246999E-1,-1.187087221E1,-2.135848860E0,1.206387654E1
1.625829012E1,9.229363957E-2,-1.101926150E1,-1.968045465E0,1.119400934E1
1.626823412E1,-1.809345053E-1,-1.067201290E1,-1.704321129E0,1.080876067E1
1.627817813E1,-3.400787401E-1,-1.062834824E1,-1.609222160E0,1.075486103E1
1.628812212E1,-4.023074403E-1,-1.070330019E1,-1.580978354E0,1.082690993E1
1.629806612E1,-5.242949769E-1,-1.070316687E1,-1.510062007E0,1.082187384E1
1.630801013E1,-5.607155290E-1,-1.061089079E1,-1.343061727E0,1.071023903E1
1.631795412E1,-4.995127228E-1,-1.042304431E1,-1.168062164E0,1.050017785E1
1.632789812E1,-3.805215554E-1,-1.015850809E1,-9.468603882E-1,1.020963407E1
1.633784213E1,-1.890469140E-1,-9.845127733E0,-8.353811753E-1,9.882314532E0
1.634778612E1,1.184414926E-1,-9.470103108E0,-9.438534576E-1,9.517759223E0
1.635773012E1,4.582521379E-1,-9.054151483E0,-1.164269514E0,9.140195709E0
1.636767413E1,6.896480960E-1,-8.616663977E0,-1.297928678E0,8.741117288E0
1.637761812E1,7.810196114E-1,-8.180828894E0,-1.255446317E0,8.313368661E0
1.638756212E1,7.313138929E-1,-7.592648116E0,-1.088173119E0,7.705014352E0
1.639750612E1,6.432659349E-1,-6.610147487E0,-1.016001521E0,6.718638251E0
1.640745012E1,4.270247903E-1,-4.829687862E0,-1.237017648E0,5.003843291E0
1.641739412E1,9.494997483E-2,-1.683263698E0,-1.566228607E0,2.301187568E0
