"Time (s)","Linear Acceleration x (m/s^2)","Linear Acceleration y (m/s^2)","Linear Acceleration z (m/s^2)","Absolute acceleration (m/s^2)"
4.665191667E-2,-3.583438338E-1,-7.991988972E-1,2.004992706E0,2.187949938E0
5.659591669E-2,2.446811244E-2,-7.622348464E-1,2.009529560E0,2.149374258E0
6.654091668E-2,2.816535075E-1,-6.615031081E-1,1.700731085E0,1.846456413E0
7.648491667E-2,5.218743758E-1,-5.225323337E-1,1.391860104E0,1.575648265E0
8.642891666E-2,6.422441339E-1,-2.717069551E-1,1.205836785E0,1.392962509E0
9.637391669E-2,6.755757482E-1,-4.039519697E-2,9.196038848E-1,1.141799312E0
1.063179167E-1,7.165762782E-1,1.769656894E-1,7.692784023E-1,1.066108661E0
1.162629167E-1,7.728048581E-1,2.828464857E-1,5.341320401E-1,9.810843590E-1
1.262069167E-1,8.727092153E-1,9.294763237E-2,3.775512064E-1,9.554085776E-1
1.361519167E-1,9.363622972E-1,-1.765932217E-1,2.663166994E-1,9.893857195E-1
1.460959167E-1,8.314565241E-1,-2.875333214E-1,9.935588837E-2,8.853626121E-1
1.560399167E-1,7.116881521E-1,-2.840109587E-1,-1.629624850E-1,7.834022096E-1
1.659849167E-1,5.051158172E-1,-1.786941263E-1,-3.888912964E-1,6.620498621E-1
1.759289167E-1,3.984550023E-1,-2.456707656E-1,-7.178386921E-1,8.569789389E-1
1.858729167E-1,3.726790139E-1,-2.365643120E-1,-8.758953631E-1,9.808389308E-1
1.958179167E-1,2.615947804E-1,-1.712474048E-2,-7.352955544E-1,7.806309232E-1
2.057619167E-1,1.918240491E-1,1.458120167E-1,-7.533043939E-1,7.909014603E-1
2.157069167E-1,2.134656174E-1,2.170620936E-1,-6.178723544E-1,6.888031421E-1
2.256509167E-1,2.580161382E-1,2.537051323E-1,-2.885565841E-1,4.628212657E-1
2.355949167E-1,2.384502583E-1,3.289535353E-1,1.385164458E-1,4.292502298E-1
2.455399167E-1,2.896787379E-1,3.930770257E-1,3.391642356E-1,5.945214025E-1
2.554839167E-1,4.893642222E-1,2.383678856E-1,2.438926274E-1,5.964731382E-1
2.654289167E-1,6.519315085E-1,2.131222397E-2,7.362229228E-2,6.564214687E-1
2.753729167E-1,7.817260281E-1,-4.985248357E-2,2.931542498E-1,8.363732823E-1
2.853169167E-1,7.471924455E-1,-8.549506366E-2,-4.609319168E-1,8.820794684E-1
2.952619167E-1,6.240911606E-1,-3.796597123E-2,-1.165251262E0,1.322399975E0
3.052059167E-1,3.857148696E-1,4.814363480E-2,-5.292273957E-1,6.566394798E-1
3.151499167E-1,3.214157434E-1,1.877786529E-1,-1.748136216E-1,4.112526047E-1
3.250949167E-1,2.201549783E-2,1.401466495E-1,-7.088228703E-2,1.585877174E-1
3.350389167E-1,-9.295333341E-2,1.769860084E-1,-3.098036116E-1,3.687040102E-1
3.449839167E-1,-1.677023841E-1,5.771201849E-1,-6.111100495E-1,8.571156807E-1
3.549279167E-1,-2.679868834E-1,1.043530797E0,-7.557035065E-1,1.316002007E0
3.648719167E-1,-7.775650764E-1,1.557144372E0,-1.484631443E0,2.287670554E0
3.748169167E-1,-9.015903676E-1,1.293891468E0,-2.286448431E-1,1.593517739E0
3.847609167E-1,-8.650230503E-1,1.094113305E0,6.479241192E-1,1.537905870E0
3.947049167E-1,-7.883985052E-1,9.790737225E-1,1.102062741E0,1.671735578E0
4.046499167E-1,-6.370966838E-1,8.111623004E-1,1.140650271E0,1.537842483E0
4.145939167E-1,-4.801425053E-1,6.775465523E-1,8.184482235E-1,1.165960398E0
4.245389167E-1,-4.945360114E-1,3.880259085E-1,1.198278090E0,1.353144616E0
4.344829167E-1,-2.100532555E-1,-8.347485065E-3,1.940827700E0,1.952179349E0
4.444269167E-1,4.223385394E-1,-7.122338435E-1,2.511259255E0,2.644252245E0
4.543719167E-1,1.038142295E0,-1.629777608E0,2.440283412E0,3.112699409E0
4.643159167E-1,1.448880836E0,-2.342057498E0,1.334994763E0,3.060506497E0
4.742599167E-1,1.787594982E0,-2.787720289E0,1.985691047E-1,3.317575910E0
4.842049167E-1,1.950793402E0,-3.034610199E0,-6.640752983E-1,3.668167111E0
4.941489167E-1,1.768733911E0,-2.921143810E0,-1.107994156E0,3.590146495E0
5.040929167E-1,1.238672556E0,-2.619813398E0,-1.611444102E0,3.315793123E0
5.140379167E-1,6.641540165E-1,-2.182279992E0,-2.160309956E0,3.141716987E0
5.239819167E-1,3.380301681E-1,-1.760242438E0,-2.151249695E0,2.800105906E0
5.339269167E-1,3.743168190E-1,-1.272207507E0,-1.923220564E0,2.336108379E0
5.438709167E-1,1.219298867E-1,-2.176076388E-1,-1.256285393E0,1.280809498E0
5.538149167E-1,2.597541500E-2,3.453184301E-1,-7.070213431E-1,7.872729641E-1
5.637599167E-1,4.623424845E-1,1.786178201E-2,-3.895906234E-1,6.048640096E-1
5.737039167E-1,6.070506566E-1,-7.212379709E-2,-3.086628199E-2,6.120989047E-1
5.836479167E-1,4.359937248E-1,-3.006141275E-2,-5.154390764E-1,6.757748576E-1
5.935929167E-1,2.119280555E-1,-2.592045848E-1,-9.563366783E-1,1.013252367E0
6.035369167E-1,7.968790144E-2,-4.782849911E-1,-9.630948901E-1,1.078266415E0
6.134809167E-1,2.079189487E-1,-6.893535425E-1,-1.237656164E0,1.431862904E0
6.234259167E-1,9.947264265E-1,-6.820762441E-1,-1.041840513E0,1.593781767E0
6.333699167E-1,1.288426952E0,-6.498110157E-1,-1.529873105E0,2.103047808E0
6.433139167E-1,6.987889020E-1,6.231670082E-4,-1.478546830E0,1.635361443E0
6.532591250E-1,3.604575292E-1,7.883778937E-1,-6.275588518E-1,1.070186641E0
6.632031250E-1,5.703093847E-1,7.899711138E-1,-4.474482375E-1,1.072155343E0
6.731471250E-1,1.112209853E0,5.254344530E-1,1.617515266E-2,1.230184440E0
6.830921250E-1,1.732708484E0,9.201821744E-2,1.488564865E0,2.286169591E0
6.930361250E-1,2.131760049E0,-5.356374058E-1,2.644620211E0,3.438796940E0
7.029801250E-1,2.041900623E0,-9.989877310E-1,2.919033549E0,3.699742086E0
7.129251250E-1,1.583151764E0,-9.830656166E-1,2.446766220E0,3.075622287E0
7.228691250E-1,9.529488015E-1,-7.982937482E-1,1.531148967E0,1.972257966E0
7.328131250E-1,4.124924129E-1,-7.060659081E-1,6.619872576E-1,1.052096092E0
7.427581250E-1,2.303554460E-2,-4.643677408E-1,-2.547304416E-1,5.301468031E-1
7.527021250E-1,-1.431893943E-1,-2.479812929E-1,-1.249804924E0,1.282189639E0
7.626461250E-1,-2.522187701E-1,-7.183859915E-2,-2.121558119E0,2.137705299E0
7.725911250E-1,-3.878371896E-1,1.841726750E-1,-2.291892774E0,2.331761082E0
7.825351250E-1,-3.916324711E-1,4.462267542E-1,-2.274597294E0,2.350805641E0
7.924791250E-1,-9.320378427E-1,1.492923672E0,-4.064458072E0,4.429146086E0
8.024241250E-1,-5.262184185E0,4.299823413E0,-5.174906890E0,8.541587973E0
8.123681250E-1,-4.910801607E0,2.690989508E0,-3.456616616E0,6.580698701E0
8.223121250E-1,5.348009616E-1,-8.822164956E-1,-2.119476510E0,2.357222665E0
8.322571250E-1,-2.768963590E-2,5.110282293E-1,-2.327443260E0,2.383046096E0
8.422011250E-1,-3.283315377E-1,5.724738412E-1,-2.404098503E0,2.493033796E0
8.521451250E-1,-5.643492812E-1,5.184813827E-2,-3.004732681E0,3.057711043E0
8.620901250E-1,-1.147423101E0,-7.484348327E-2,-3.579527428E0,3.759680562E0
8.720341250E-1,-1.230415556E0,-8.359091789E-2,-3.957387367E0,4.145096460E0
8.819781250E-1,-1.471347592E0,-1.481050023E-1,-3.923855340E0,4.193261208E0
8.919231250E-1,-1.469857283E0,-8.861426085E-2,-3.814128830E0,4.088509710E0
9.018671250E-1,-8.597547090E-1,1.285791028E-1,-3.298463466E0,3.411095423E0
9.118111250E-1,-3.626853915E-1,2.222316170E-1,-2.971629839E0,3.001917968E0
9.217561250E-1,-5.193991032E-1,4.100988552E-1,-2.964319650E0,3.037292789E0
9.317001250E-1,-8.819776368E-1,6.315644869E-1,-3.175717546E0,3.355881432E0
9.416441250E-1,-8.387090450E-1,9.802428733E-1,-2.877247592E0,3.153230512E0
9.515891250E-1,-1.058848163E-1,1.735960413E0,-3.343970007E-1,1.771042491E0
9.615331250E-1,5.065295278E-1,1.791852924E0,2.710138262E0,3.288184676E0
9.714771250E-1,1.043539348E0,2.256308081E0,6.097010459E0,6.584332697E0
9.814221250E-1,1.350855335E0,2.106538815E0,1.029011488E1,1.059003211E1
9.913661250E-1,1.491836967E0,1.846003696E0,1.548237104E1,1.566324105E1
1.001310125E0,2.508236244E0,1.012547424E0,1.962366503E1,1.980920823E1
1.011254125E0,3.890924991E0,-1.051341069E-1,2.290505931E1,2.323342619E1
1.021199125E0,4.747127516E0,-5.234064925E-1,2.439826043E1,2.486130097E1
1.031143125E0,4.497031870E0,-9.066049397E-2,2.332090627E1,2.375070913E1
1.041087125E0,3.862209607E0,3.618432462E-1,2.158814004E1,2.193388666E1
1.051032125E0,4.013063385E0,-4.429675162E-2,2.000586244E1,2.040444000E1
1.060976125E0,3.953358636E0,-3.957243526E-1,1.748487634E1,1.793060353E1
1.070920125E0,3.730682631E0,-8.527558842E-1,1.418841613E1,1.469545296E1
1.080865125E0,3.663732596E0,-9.697270945E-1,1.052081560E1,1.118261455E1
1.090809125E0,2.965490555E0,-3.050784767E-1,6.908811568E0,7.524552106E0
1.100753125E0,1.815483715E0,4.507706255E-1,4.286890249E0,4.677243128E0
1.110698125E0,6.079931181E-1,1.046199612E0,3.580218569E0,3.779173754E0
1.120642125E0,-3.953120508E-1,1.315574405E0,3.883798989E0,4.119575490E0
1.130586125E0,-4.697495180E-1,9.237114076E-1,4.163668950E0,4.290693009E0
1.140531125E0,-5.618288389E-1,3.781694032E-1,3.915144743E0,3.973288575E0
1.150475125E0,-1.147804778E0,4.083563849E-1,2.482696776E0,2.765500683E0
1.160419125E0,-1.647211228E0,7.276310241E-1,-2.142337954E-1,1.813462946E0
1.170363125E0,-1.918610473E0,1.371952381E0,-3.992907448E0,4.637524057E0
1.180308125E0,-1.848903769E0,2.075493169E0,-7.552141530E0,8.047419383E0
1.190252125E0,-1.570923336E0,2.420586774E0,-9.890773437E0,1.030312766E1
1.200196125E0,-1.105401793E0,2.646945648E0,-1.090668740E1,1.127759125E1
1.210141125E0,-1.141579832E0,2.499048514E0,-1.112862197E1,1.146275163E1
1.220085125E0,-1.586967219E0,1.884478521E0,-1.098637325E1,1.125922384E1
1.230029125E0,-1.687898201E0,1.131047389E0,-9.732404525E0,9.942231458E0
1.239974125E0,-2.021769829E0,4.287906495E-1,-8.062245022E0,8.322932744E0
1.249918125E0,-2.150912019E0,-1.486102018E-1,-6.777075554E0,7.111769158E0
1.259862125E0,-1.967385753E0,-6.073942901E-1,-6.392669072E0,6.716081624E0
1.269806125E0,-1.769650315E0,-9.805783573E-1,-7.154899240E0,7.435440760E0
1.279751125E0,-1.388946583E0,-9.571868634E-1,-8.255024214E0,8.425604078E0
1.289695125E0,-1.009737545E0,-5.794181406E-1,-9.491029124E0,9.562161320E0
1.299639125E0,-5.980307052E-1,-4.909236015E-1,-1.076238513E1,1.079016128E1
1.309584125E0,-2.743352786E-1,-4.467154352E-1,-1.145888441E1,1.147086947E1
1.319528125E0,-2.709517872E-1,-3.121847440E-1,-1.131529550E1,1.132284357E1
1.329472125E0,-3.608945355E-1,-3.966859272E-1,-1.063118063E1,1.064469850E1
1.339417125E0,-4.938608041E-1,-5.878170812E-1,-9.726425747E0,9.756679006E0
1.349361125E0,-7.936930127E-1,-8.873111746E-1,-8.888029747E0,8.967404446E0
1.359305125E0,-1.608440095E0,-1.460017881E0,-8.306842239E0,8.586172589E0
1.369249125E0,-1.554334931E0,-1.199201219E0,-8.060288544E0,8.295920205E0
1.379194125E0,-1.541323122E0,-1.235904630E0,-7.704806483E0,7.954066895E0
1.389138125E0,-1.832109104E0,-1.646083446E0,-7.673095863E0,8.058698072E0
1.399082125E0,-1.535648107E0,-1.562186719E0,-7.997343267E0,8.291932331E0
1.409027125E0,-1.340570229E0,-1.535167028E0,-8.268126070E0,8.515619475E0
1.418971125E0,-1.300928884E0,-1.749541887E0,-8.321813450E0,8.602667718E0
1.428915125E0,-1.351804046E0,-1.975478446E0,-8.272645383E0,8.612000401E0
1.438859125E0,-1.341095309E0,-2.351336153E0,-8.464791906E0,8.887070403E0
1.448804125E0,-1.195261511E0,-2.596546742E0,-8.467181663E0,8.936658793E0
1.458748125E0,-1.350721726E0,-2.679369628E0,-8.061857936E0,8.602152299E0
1.468692125E0,-1.861845119E0,-2.994397435E0,-7.791180968E0,8.551922832E0
1.478637125E0,-2.157600356E0,-3.131867229E0,-7.439161044E0,8.354935588E0
1.488581125E0,-2.064610770E0,-3.086232927E0,-7.223055555E0,8.121575147E0
1.498525125E0,-1.770388088E0,-3.123496063E0,-6.954725659E0,7.826794404E0
1.508469125E0,-1.479234317E0,-3.393802025E0,-6.219303805E0,7.237801197E0
1.518414125E0,-1.104742812E0,-3.878083628E0,-5.692500080E0,6.975997884E0
1.528358125E0,-7.303969033E-1,-4.293952516E0,-5.069355876E0,6.683552711E0
1.538302125E0,-4.812539148E-1,-4.373331099E0,-4.577526103E0,6.349123991E0
1.548247125E0,-2.963506302E-1,-4.044432236E0,-4.473876604E0,6.038280192E0
1.558191125E0,-1.770832184E-1,-3.516855801E0,-4.721075832E0,5.889668089E0
1.568135125E0,-3.277371682E-1,-2.764526431E0,-4.868673003E0,5.608386118E0
1.578079125E0,-8.616815127E-1,-1.894368648E0,-4.963560449E0,5.382198430E0
1.588024125E0,-1.626942147E0,-9.445393360E-1,-5.193347839E0,5.523581907E0
1.597968125E0,-2.414445590E0,5.433750263E-1,-4.528249862E0,5.160411877E0
1.607912125E0,-2.973608829E0,2.575980623E0,-2.697895362E0,4.770394640E0
1.617857125E0,-2.435073105E0,4.165205890E0,1.864923824E0,5.172664884E0
1.627801125E0,-1.294419033E0,5.707158465E0,8.936019015E0,1.068174210E1
1.637745125E0,-1.451681652E-1,7.060919867E0,1.512461032E1,1.669225870E1
1.647689125E0,1.728331989E0,7.759056365E0,1.891086723E1,2.051367803E1
1.657633500E0,3.843132774E0,7.699055747E0,2.143838116E1,2.310085097E1
1.667577500E0,5.592281143E0,7.364906668E0,2.349695658E1,2.525118665E1
1.677521500E0,6.704955411E0,7.070868319E0,2.480817832E1,2.665331719E1
1.687466500E0,6.597483587E0,7.393428801E0,2.595445010E1,2.778170368E1
1.697410500E0,5.678379055E0,7.447323757E0,2.744664784E1,2.900043271E1
1.707354500E0,3.887459931E0,7.025237233E0,2.930122794E1,3.038138018E1
1.717298500E0,1.855607163E0,6.351581272E0,3.016033828E1,3.087769208E1
1.727243500E0,4.448697616E-1,5.718311445E0,2.894339939E1,2.950622584E1
1.737187500E0,2.016108263E-1,5.153490293E0,2.683014315E1,2.732134130E1
1.747131500E0,1.439588587E0,4.835379542E0,2.411596622E1,2.463804248E1
1.757075500E0,3.588021678E0,4.878693084E0,2.082712025E1,2.168973222E1
1.767020500E0,5.904936442E0,5.446324700E0,1.677461389E1,1.859888164E1
1.776964500E0,7.725350676E0,6.365830936E0,1.184072864E1,1.550508630E1
1.786908500E0,8.399494295E0,7.262589750E0,6.959713919E0,1.310474464E1
1.796853500E0,8.158277938E0,7.481438752E0,3.266672739E0,1.154125537E1
1.806797500E0,6.822425973E0,6.807955284E0,3.888632298E-1,9.645981854E0
1.816741500E0,4.516663897E0,5.552109602E0,-1.402190965E0,7.293306060E0
1.826685500E0,2.293795165E0,3.355357752E0,-5.503399372E-1,4.101560184E0
1.836630500E0,3.904029478E-1,1.066192997E0,1.959700173E0,2.264863514E0
1.846574500E0,-1.101433581E0,-5.259072004E-1,2.902104106E0,3.148323769E0
1.856518500E0,-1.661287230E0,-1.328820688E0,1.807833365E0,2.791755927E0
1.866462500E0,-1.567690264E0,-1.371082608E0,-9.380652988E-1,2.284181864E0
1.876407500E0,-6.137543066E-1,-9.597754258E-1,-3.550456241E0,3.728753510E0
1.886351500E0,2.452411415E-1,-6.091942093E-1,-6.596241054E0,6.628850341E0
1.896295500E0,4.597390848E-1,-5.228719108E-1,-9.733471642E0,9.758341317E0
1.906240500E0,2.903101641E-1,-4.375106022E-1,-1.200449629E1,1.201597381E1
1.916184500E0,-2.739337210E-1,-6.550292172E-1,-1.289635455E1,1.291588416E1
1.926128500E0,-1.205850819E0,-9.413246830E-1,-1.239517449E1,1.248921611E1
1.936072500E0,-2.471905447E0,-1.191223570E0,-1.119226307E1,1.152371827E1
1.946017500E0,-3.237357724E0,-1.741984946E0,-9.689661963E0,1.036361643E1
1.955961500E0,-3.886552443E0,-2.073659190E0,-8.343226538E0,9.434764512E0
1.965905500E0,-4.515574853E0,-2.277659189E0,-7.576006356E0,9.109007626E0
1.975849500E0,-4.881222005E0,-2.452816334E0,-7.477173209E0,9.260170378E0
1.985794500E0,-4.708331825E0,-2.478889069E0,-7.618768798E0,9.292949886E0
1.995738500E0,-4.369837096E0,-2.426013136E0,-7.937329200E0,9.379883305E0
2.005682500E0,-3.999784066E0,-2.273992546E0,-8.205011809E0,9.406993859E0
2.015626500E0,-3.565404941E0,-2.226961052E0,-8.387888741E0,9.382331557E0
2.025571500E0,-3.414414922E0,-2.152842038E0,-8.599210038E0,9.499440583E0
2.035515500E0,-3.302769940E0,-2.240614300E0,-8.479612259E0,9.371897662E0
2.045459500E0,-3.301679727E0,-2.454724866E0,-8.203657594E0,9.177513885E0
2.055403500E0,-3.332655352E0,-2.708829655E0,-7.634693105E0,8.759731081E0
2.065348500E0,-3.251668492E0,-2.985323433E0,-6.915311918E0,8.204086963E0
2.075292500E0,-3.091089624E0,-3.233176380E0,-6.428720080E0,7.831775433E0
2.085236500E0,-2.922495978E0,-3.298307930E0,-6.135746509E0,7.554283763E0
2.095180500E0,-2.782255773E0,-3.251376716E0,-6.061789756E0,7.420087114E0
2.105125500E0,-2.538207025E0,-3.142714106E0,-6.222092927E0,7.418462594E0
2.115069500E0,-2.043734018E0,-2.929044567E0,-6.288434266E0,7.231912357E0
2.125013500E0,-1.013229209E0,-3.115643252E0,-6.226740879E0,7.036061986E0
2.134958500E0,2.439838439E-2,-3.424599602E0,-6.125138490E0,7.017535126E0
2.144902500E0,4.427204713E-1,-3.437126385E0,-6.104463905E0,7.019566850E0
2.154846500E0,3.445129761E-1,-3.543515889E0,-6.311078194E0,7.246026636E0
2.164790500E0,-1.136970618E-1,-3.692559369E0,-6.616483530E0,7.577979679E0
2.174735500E0,-8.137970558E-1,-3.784466197E0,-6.723250179E0,7.757998648E0
2.184679500E0,-1.596256836E0,-3.911403987E0,-6.676001753E0,7.900387107E0
2.194623500E0,-2.197766927E0,-3.975811359E0,-6.514506919E0,7.942043555E0
2.204567500E0,-2.854896318E0,-3.947414356E0,-6.509532108E0,8.130591698E0
2.214512500E0,-3.376403927E0,-3.921780455E0,-6.774689890E0,8.525074106E0
2.224456500E0,-3.884383126E0,-3.705379974E0,-7.161085010E0,8.949827458E0
2.234400500E0,-4.457334538E0,-3.214039905E0,-7.660782212E0,9.427908983E0
2.244344500E0,-4.886954615E0,-2.565478147E0,-8.506539271E0,1.014027682E1
2.254289500E0,-5.663251723E0,-2.019085957E0,-9.744381961E0,1.144998288E1
2.264233500E0,-6.524729607E0,-1.572250215E0,-1.055102816E1,1.250472961E1
2.274177500E0,-7.054876184E0,-8.290626740E-1,-1.009866534E1,1.234672688E1
2.284121500E0,-7.528679577E0,8.788949847E-2,-8.826174976E0,1.160129758E1
2.294065500E0,-7.714446788E0,7.428396320E-1,-6.628577911E0,1.019816381E1
2.304010500E0,-7.901575230E0,1.592397089E0,-3.561875854E0,8.812353784E0
2.313954500E0,-8.055821271E0,2.282058049E0,6.440819138E-1,8.397552429E0
2.323898500E0,-7.394562576E0,3.028573241E0,5.478162789E0,9.688244378E0
2.333842500E0,-6.044301319E0,3.827904870E0,8.132104046E0,1.083132265E1
2.343787500E0,-4.324272375E0,5.137526810E0,7.430972604E0,1.001563114E1
2.353731500E0,-3.217764289E0,7.661751680E0,4.653826420E0,9.524418417E0
2.363675500E0,-2.155602655E0,1.073716024E1,2.244264278E0,1.117899615E1
2.373619500E0,-6.447958589E-1,1.358605001E1,2.943624015E0,1.391622933E1
2.383564500E0,1.268191786E0,1.515721790E1,7.405560604E0,1.691720700E1
2.393508500E0,4.605935969E0,1.398650944E1,1.292513454E1,1.959326913E1
2.403452500E0,7.077397905E0,1.199568453E1,1.752593315E1,2.238625340E1
2.413396500E0,7.640674222E0,9.807822497E0,2.135274985E1,2.470856554E1
2.423341500E0,8.302034073E0,6.646935829E0,2.521130173E1,2.736266180E1
2.433285500E0,9.003771873E0,2.880506245E0,2.874349478E1,3.025811819E1
2.443229500E0,7.971218492E0,5.323889852E-4,2.859303891E1,2.968336569E1
2.453173500E0,5.928541651E0,-1.486888761E0,2.479904263E1,2.554116206E1
2.463118500E0,4.251750821E0,-1.673424003E0,1.930362353E1,1.983702635E1
2.473062500E0,3.320087931E0,-1.094825350E0,1.414770782E1,1.457323790E1
2.483006500E0,2.989609735E0,2.908136094E-1,1.109540862E1,1.149480019E1
2.492950500E0,3.784192255E0,1.503522335E0,9.146704720E0,1.001213752E1
2.502895500E0,4.847516608E0,2.502576140E0,7.620628797E0,9.372048221E0
2.512839500E0,5.578453647E0,3.286555611E0,7.160427198E0,9.653616449E0
2.522783500E0,6.030135854E0,3.691021551E0,6.785191489E0,9.799234769E0
2.532727500E0,6.490182502E0,3.804428884E0,5.960413654E0,9.598056000E0
2.542672500E0,6.551022781E0,4.001171026E0,4.833502001E0,9.071273927E0
2.552616500E0,5.969656348E0,3.954546498E0,3.318364465E0,7.892197263E0
2.562560500E0,4.927366185E0,3.528017259E0,1.505477936E0,6.244382044E0
2.572504500E0,3.335799108E0,2.773809178E0,1.332954669E-1,4.340430937E0
2.582448500E0,2.000967482E0,1.972808461E0,-8.577087682E-1,2.937942889E0
2.592393500E0,8.481664047E-1,1.502533278E0,-1.891319910E0,2.560094433E0
2.602337500E0,-4.110095590E-2,1.181367942E0,-2.917340780E0,3.147728821E0
2.612281500E0,-3.368076615E-1,1.087941130E0,-3.687693316E0,3.859551438E0
2.622225500E0,7.669471174E-2,7.048759997E-1,-3.707306632E0,3.774500592E0
2.632170500E0,6.691217378E-1,1.004469788E-1,-2.809807561E0,2.890126645E0
2.642114500E0,6.886083148E-1,-2.981536192E-1,-1.865585729E0,2.010842387E0
2.652058500E0,3.201123990E-1,-8.961685368E-1,-1.376752653E0,1.673630145E0
2.662002917E0,-7.243016195E-1,-1.209156250E0,-1.606171668E0,2.136927490E0
2.671946917E0,-1.997569081E0,-1.140785634E0,-2.444650698E0,3.356782854E0
2.681891917E0,-2.721801118E0,-1.079414136E0,-3.784909124E0,4.785276719E0
2.691835917E0,-2.975486078E0,-8.690573367E-1,-5.258183520E0,6.103873523E0
2.701779917E0,-2.920166740E0,-5.769577785E-1,-6.674297875E0,7.307975519E0
2.711723917E0,-2.583254267E0,-5.497204247E-1,-7.920763453E0,8.349484345E0
2.721668917E0,-2.276044334E0,-6.203384176E-1,-8.662158238E0,8.977649075E0
2.731612917E0,-2.249251953E0,-5.674218468E-1,-9.090216524E0,9.381531770E0
2.741556917E0,-2.298285534E0,-7.259098962E-1,-9.398436710E0,9.702560186E0
2.751500917E0,-2.432532197E0,-1.035555633E0,-9.292171167E0,9.660954060E0
2.761445917E0,-2.714064667E0,-1.171074796E0,-8.989357901E0,9.462881098E0
2.771389917E0,-2.751309092E0,-1.442370253E0,-8.701649748E0,9.239526070E0
2.781333917E0,-2.529600801E0,-1.741784971E0,-8.570628848E0,9.104305242E0
2.791277917E0,-2.215086380E0,-1.859030708E0,-8.607271594E0,9.080073080E0
2.801221917E0,-1.721279516E0,-1.830555791E0,-8.838834198E0,9.189054775E0
2.811166917E0,-1.049589535E0,-1.769172744E0,-9.360913957E0,9.584274647E0
2.821110917E0,-5.704758476E-1,-1.689099657E0,-9.886203253E0,1.004567146E1
2.831054917E0,-4.149752869E-1,-1.643740905E0,-1.049157251E1,1.062766119E1
2.840998917E0,-5.125790571E-1,-1.902451546E0,-1.100741387E1,1.118236197E1
2.850943917E0,-9.357468778E-1,-2.284156907E0,-1.125286595E1,1.152041610E1
2.860887917E0,-1.653357528E0,-2.644118519E0,-1.114487139E1,1.157294742E1
2.870831917E0,-2.685864131E0,-2.775367168E0,-1.072266967E1,1.139702478E1
2.880775917E0,-3.359851044E0,-3.273072517E0,-1.026570860E1,1.128655730E1
2.890719917E0,-3.920711877E0,-3.458149171E0,-1.006492925E1,1.134167439E1
2.900664917E0,-3.871745246E0,-3.496664781E0,-9.913750656E0,1.120265718E1
2.910608917E0,-3.334668548E0,-3.963157985E0,-9.677277560E0,1.097617130E1
2.920552917E0,-3.287566595E0,-4.196170405E0,-9.410935133E0,1.081580511E1
2.930496917E0,-3.353377592E0,-4.080998091E0,-9.389889250E0,1.077356519E1
2.940441917E0,-3.125473006E0,-4.176840095E0,-9.374502302E0,1.072827424E1
2.950385917E0,-3.004781213E0,-4.025746581E0,-9.610181930E0,1.084393574E1
2.960329917E0,-2.999520765E0,-3.818939042E0,-9.808714782E0,1.094496715E1
2.970273917E0,-2.911195357E0,-3.884029369E0,-9.772150388E0,1.091126325E1
2.980217917E0,-3.303576856E0,-3.978551949E0,-9.539813029E0,1.085129155E1
2.990162917E0,-3.993254188E0,-4.065005372E0,-8.578401552E0,1.029851061E1
3.000106917E0,-4.705621056E0,-4.086698834E0,-6.731775420E0,9.173918311E0
3.010050917E0,-4.939766375E0,-4.209593566E0,-4.554036083E0,7.928506447E0
3.019994917E0,-4.368513871E0,-3.901423082E0,-2.020971977E0,6.195913430E0
3.029938917E0,-2.966659121E0,-3.564055696E0,-5.621747017E-2,4.637533800E0
3.039883917E0,-1.353319498E0,-2.701873223E0,1.355414994E0,3.311909174E0
3.049827917E0,9.314842576E-1,-1.642903876E0,3.065361291E0,3.600449404E0
3.059771917E0,3.345390880E0,-5.808515856E-1,6.547377627E0,7.375444562E0
3.069715917E0,5.087340742E0,9.046289463E-2,1.166976073E1,1.273077118E1
3.079659917E0,6.363312541E0,-1.926037022E-1,1.652298949E1,1.770700495E1
3.089604917E0,6.777141042E0,-4.424430940E-1,2.072446887E1,2.180892034E1
3.099548917E0,6.078526826E0,5.091820258E-2,2.325759964E1,2.403886482E1
3.109492917E0,5.185016141E0,6.881984250E-1,2.458627882E1,2.513648972E1
3.119436917E0,4.382084674E0,1.418703063E0,2.578709343E1,2.619522041E1
3.129381917E0,3.508045802E0,1.806035931E0,2.694557654E1,2.723292578E1
3.139325917E0,2.509531695E0,1.966803517E0,2.808238051E1,2.826280525E1
3.149269917E0,2.241783597E0,2.063023544E0,2.885399780E1,2.901439038E1
3.159213917E0,3.099919505E0,2.038216877E0,2.851275898E1,2.875310859E1
3.169157917E0,4.645547932E0,2.329360416E0,2.703360520E1,2.752858234E1
3.179101917E0,6.425920433E0,2.731388505E0,2.442908695E1,2.540734590E1
3.189046917E0,7.660038446E0,3.218271242E0,2.055897863E1,2.217442358E1
3.198990917E0,8.675265942E0,3.761982191E0,1.669965375E1,1.919091411E1
3.208934917E0,9.190861723E0,4.024373655E0,1.353657321E1,1.684952037E1
3.218878917E0,9.165159702E0,4.075586201E0,1.131168192E1,1.511835650E1
3.228823917E0,8.409811707E0,3.994185650E0,9.491610922E0,1.329545523E1
3.238767917E0,6.755243220E0,3.792113186E0,7.989751242E0,1.112877164E1
3.248711917E0,4.418964232E0,3.443129721E0,6.965179896E0,8.938462852E0
3.258655917E0,2.130117273E0,3.343888438E0,6.165733954E0,7.330434140E0
3.268599917E0,4.226503421E-1,3.374957326E0,5.246673861E0,6.252723955E0
3.278544917E0,-3.711865121E-1,3.526339108E0,3.623387393E0,5.069692607E0
3.288488917E0,-5.456376064E-1,3.693879086E0,1.083189683E0,3.887899560E0
3.298432917E0,-4.577127323E-1,3.529642785E0,-1.535062509E0,3.876118682E0
3.308376917E0,-5.307634592E-1,3.035657435E0,-3.610184380E0,4.746615338E0
3.318320917E0,-1.395776862E0,2.603348808E0,-4.861334163E0,5.688425785E0
3.328264917E0,-2.040659552E0,1.680476038E0,-5.745195773E0,6.324204739E0
3.338209917E0,-2.919684345E0,8.779331908E-1,-6.151869621E0,6.865917506E0
3.348153917E0,-3.455700065E0,8.445791379E-2,-6.162218608E0,7.065545574E0
3.358097917E0,-3.789148647E0,-6.279608479E-1,-6.088557140E0,7.198785338E0
3.368041917E0,-4.177290916E0,-1.303669182E0,-5.904768042E0,7.349530486E0
3.377986917E0,-4.468198665E0,-1.737311412E0,-5.603337643E0,7.374309662E0
3.387930917E0,-4.294197222E0,-2.203090671E0,-5.526265494E0,7.337121274E0
3.397874917E0,-4.038075728E0,-2.516518533E0,-5.677245280E0,7.407431071E0
3.407818917E0,-3.815440945E0,-2.692222101E0,-6.043927681E0,7.637716364E0
3.417762917E0,-3.652650953E0,-2.826839331E0,-6.726735120E0,8.159769908E0
3.427706917E0,-3.574430995E0,-2.866462988E0,-7.525502200E0,8.810581727E0
3.437651917E0,-3.339547758E0,-2.870685262E0,-8.505337084E0,9.577795780E0
3.447595917E0,-3.510293471E0,-2.829037007E0,-9.092950682E0,1.014925430E1
3.457539917E0,-3.607763925E0,-2.848390998E0,-9.393599893E0,1.045796399E1
3.467483917E0,-3.747972847E0,-2.917106892E0,-9.454193419E0,1.058010332E1
3.477427917E0,-3.966181580E0,-2.946499968E0,-9.325628935E0,1.055366351E1
3.487372917E0,-4.270198202E0,-2.971760817E0,-9.285356237E0,1.064348606E1
3.497316917E0,-4.414427962E0,-3.101070821E0,-9.016455068E0,1.050715359E1
3.507260917E0,-4.488275372E0,-3.179527884E0,-8.662164086E0,1.026095025E1
3.517204917E0,-4.643772132E0,-3.186092845E0,-8.516764882E0,1.021034237E1
3.527148917E0,-4.760352456E0,-3.202623801E0,-8.450035872E0,1.021375842E1
3.537093917E0,-4.882618320E0,-3.183704842E0,-8.377688858E0,1.020595947E1
3.547037917E0,-4.994655942E0,-3.104732932E0,-8.375397919E0,1.023392617E1
3.556981917E0,-5.103887193E0,-3.082157710E0,-8.395311781E0,1.029711710E1
3.566925917E0,-5.332782882E0,-3.036296828E0,-8.352513671E0,1.036446604E1
3.576869917E0,-5.547400255E0,-2.953508148E0,-8.346034371E0,1.044763847E1
3.586813917E0,-5.735510445E0,-2.887890694E0,-8.270562605E0,1.047082607E1
3.596758917E0,-5.882840983E0,-2.777972980E0,-8.106492072E0,1.039423714E1
3.606702917E0,-5.832505227E0,-2.715194642E0,-7.893534139E0,1.018323526E1
3.616646917E0,-5.799870747E0,-2.704948273E0,-7.768576217E0,1.006508928E1
3.626590917E0,-5.853670394E0,-2.709852333E0,-7.709155058E0,1.005185697E1
3.636534917E0,-5.821418906E0,-2.672464651E0,-7.699015401E0,1.001527950E1
3.646479917E0,-5.772665992E0,-2.631330659E0,-7.824192009E0,1.007301118E1
3.656422792E0,-5.811072843E0,-2.632339011E0,-7.827757056E0,1.009809669E1
3.666366792E0,-5.785967823E0,-2.588424375E0,-7.553852425E0,9.860935597E0
3.676310792E0,-5.581219965E0,-2.597014520E0,-7.204715179E0,9.476413959E0
3.686254792E0,-5.316052244E0,-2.619229554E0,-6.888445716E0,9.086883915E0
3.696198792E0,-5.111227203E0,-2.446253712E0,-6.621481730E0,8.715091568E0
3.706143792E0,-4.625522972E0,-2.196805206E0,-6.166196469E0,8.015197738E0
3.716087792E0,-3.822031049E0,-1.980106810E0,-5.495096326E0,6.980317181E0
3.726031792E0,-2.880501275E0,-1.836556788E0,-4.568246571E0,5.704305845E0
3.735975792E0,-1.804708028E0,-1.596626965E0,-2.959457690E0,3.816356712E0
3.745919792E0,-8.204663900E-1,-9.746675532E-1,-9.256902516E-1,1.574815665E0
3.755863792E0,7.273059189E-2,-1.561212426E-1,1.290026751E0,1.301473242E0
3.765808792E0,8.079244047E-1,6.987592274E-1,3.535086250E0,3.692944773E0
3.775752792E0,1.793809403E0,1.376329461E0,6.061205619E0,6.469176803E0
3.785696792E0,2.450885584E0,1.829246453E0,8.519834086E0,9.052102274E0
3.795640792E0,3.319619569E0,1.418361732E0,1.109960107E1,1.167187937E1
3.805584792E0,5.283851627E0,2.514071766E-1,1.463653972E1,1.556311629E1
3.815529792E0,8.167586120E0,-8.569493611E-1,1.859445217E1,2.032725945E1
3.825473792E0,1.142500798E1,-5.781720990E-1,2.165840720E1,2.449391134E1
3.835417792E0,1.375123151E1,6.381312025E-1,2.276817599E1,2.660626651E1
3.845361792E0,1.536239670E1,1.155680247E0,2.230890293E1,2.711136255E1
3.855305792E0,1.464633264E1,1.473274104E0,2.264642059E1,2.701010851E1
3.865249792E0,1.194718539E1,1.079450462E0,2.428742295E1,2.708836218E1
3.875194792E0,8.692164395E0,1.582956029E-1,2.553516965E1,2.697450034E1
3.885138792E0,5.834641215E0,-7.077268828E-1,2.500401092E1,2.568549158E1
3.895082792E0,3.956832467E0,-9.317192426E-1,2.326492035E1,2.361739068E1
3.905026792E0,3.456193278E0,-9.501581448E-1,2.155139380E1,2.184744029E1
3.914970792E0,4.437624744E0,-7.879367213E-1,1.962992857E1,2.014069148E1
3.924914792E0,6.307796152E0,-3.977401802E-1,1.684526111E1,1.799192351E1
3.934859792E0,7.953165214E0,2.752860358E-1,1.332069517E1,1.551675028E1
3.944803792E0,8.609284791E0,1.214866933E0,9.701277457E0,1.302729713E1
3.954747792E0,8.475444948E0,1.990312394E0,6.388745590E0,1.079863791E1
3.964691792E0,7.744822488E0,2.387634498E0,4.096092094E0,9.080806369E0
3.974635792E0,6.398492314E0,2.353814203E0,3.031536902E0,7.461324358E0
3.984579792E0,4.923696472E0,2.035458015E0,2.463034344E0,5.869617914E0
3.994524792E0,3.353114175E0,1.696868414E0,1.453442395E0,4.029296698E0
4.004468792E0,1.660707479E0,1.297317936E0,-1.825027102E-1,2.115251852E0
4.014412792E0,5.371018410E-2,7.583385542E-1,-1.880306679E0,2.028180306E0
4.024356792E0,-1.099977624E0,7.117523253E-3,-3.312038362E0,3.489928301E0
4.034300792E0,-1.868907532E0,-3.491625358E-1,-4.561002456E0,4.941403975E0
4.044244792E0,-2.333643063E0,-3.988875501E-1,-5.769116147E0,6.236000508E0
4.054189792E0,-2.334894952E0,-5.381417683E-1,-6.982949585E0,7.382609017E0
4.064133792E0,-2.125446225E0,-7.988894333E-1,-8.195066864E0,8.503814844E0
4.074077792E0,-1.737581407E0,-1.160114190E0,-8.950201437E0,9.190819324E0
4.084021792E0,-1.357236401E0,-1.453244759E0,-8.844000213E0,9.064786305E0
4.093965792E0,-1.692180117E0,-1.451631804E0,-8.431768001E0,8.721549178E0
4.103909792E0,-2.411463071E0,-1.523015783E0,-7.921078618E0,8.418920221E0
4.113853792E0,-3.160389070E0,-1.645533223E0,-7.504028301E0,8.307001830E0
4.123798792E0,-3.700953047E0,-1.783510409E0,-7.192616705E0,8.283217847E0
4.133742792E0,-4.116383686E0,-1.950177105E0,-7.012416043E0,8.361924668E0
4.143686792E0,-4.526854717E0,-2.031829964E0,-7.002452973E0,8.582254614E0
4.153630792E0,-4.713880833E0,-2.159418548E0,-6.998849918E0,8.710204426E0
4.163574792E0,-4.791965135E0,-2.289952521E0,-7.088317580E0,8.857260216E0
4.173518792E0,-4.763654671E0,-2.408362439E0,-7.259797704E0,9.010953233E0
4.183463792E0,-4.731980889E0,-2.426432382E0,-7.431205907E0,9.137944981E0
4.193407792E0,-4.613905724E0,-2.407421183E0,-7.449764970E0,9.087507958E0
4.203351792E0,-4.468018863E0,-2.355698175E0,-7.426338685E0,8.981258972E0
4.213295792E0,-4.403165056E0,-2.271856997E0,-7.481448108E0,8.973364058E0
4.223239792E0,-4.440366211E0,-2.272578397E0,-7.543032737E0,9.043163580E0
4.233183792E0,-4.593542211E0,-2.256384972E0,-7.542936843E0,9.115250924E0
4.243128792E0,-4.800262334E0,-2.221387924E0,-7.542178459E0,9.212032278E0
4.253072792E0,-5.067521020E0,-2.229392032E0,-7.654542063E0,9.446796935E0
4.263016792E0,-5.269175701E0,-2.267421153E0,-7.789934927E0,9.674114813E0
4.272960792E0,-5.467222064E0,-2.319190646E0,-7.769698883E0,9.779436746E0
4.282904792E0,-5.691103181E0,-2.331458835E0,-7.748179960E0,9.892353026E0
4.292848792E0,-5.880143663E0,-2.363785898E0,-7.640616919E0,9.926862554E0
4.302792792E0,-6.030614156E0,-2.362429490E0,-7.537315915E0,9.937832329E0
4.312737792E0,-6.119801152E0,-2.358551617E0,-7.481060438E0,9.948919395E0
4.322681792E0,-6.181026177E0,-2.345363660E0,-7.522467495E0,1.001465589E1
4.332625792E0,-6.227650706E0,-2.390646252E0,-7.641522653E0,1.014355417E1
4.342569792E0,-6.232409170E0,-2.460711245E0,-7.590976982E0,1.012526323E1
4.352513792E0,-6.210066959E0,-2.452112037E0,-7.486964371E0,1.003157119E1
4.362457792E0,-6.123667331E0,-2.494266661E0,-7.415402638E0,9.935233467E0
4.372401792E0,-6.095088480E0,-2.550400516E0,-7.489262327E0,9.987176606E0
4.382346792E0,-6.037095795E0,-2.552202628E0,-7.537002504E0,9.988326718E0
4.392290792E0,-5.902206962E0,-2.532562708E0,-7.437416235E0,9.826753337E0
4.402234792E0,-5.723573939E0,-2.472134950E0,-7.297941431E0,9.598473783E0
4.412178792E0,-5.294160268E0,-2.480670716E0,-6.917802832E0,9.057475154E0
4.422122792E0,-4.805797016E0,-2.372708895E0,-6.381277526E0,8.333434786E0
4.432066792E0,-4.186941745E0,-2.366777041E0,-5.671409174E0,7.436195045E0
4.442011792E0,-3.156867292E0,-2.581778722E0,-4.599736167E0,6.147272995E0
4.451955792E0,-1.784192195E0,-2.652831455E0,-3.129921568E0,4.474065885E0
4.461899792E0,-4.703795555E-1,-2.523394566E0,-1.868277202E0,3.174781373E0
4.471843792E0,7.904687119E-1,-2.318210506E0,-5.899138927E-1,2.519313227E0
4.481787792E0,1.516411352E0,-1.342322055E0,1.059429522E0,2.285546499E0
4.491731792E0,1.662553445E0,4.551852733E-1,2.965319524E0,3.429926744E0
4.501675792E0,2.199604999E0,1.859468080E0,6.466555658E0,7.078998924E0
4.511619792E0,4.278725197E0,1.857811563E0,1.204270550E1,1.291455415E1
4.521564792E0,7.729289360E0,1.372597475E0,1.949000236E1,2.101157133E1
4.531508792E0,1.091938755E1,1.526943942E0,2.573315404E1,2.799571037E1
4.541452792E0,1.334841799E1,1.503116538E0,2.975176058E1,3.264363460E1
4.551396792E0,1.439240677E1,1.732951290E0,3.083656878E1,3.407401454E1
4.561340792E0,1.406626312E1,1.881977959E0,2.876921785E1,3.207911307E1
4.571284792E0,1.290949207E1,2.095280001E0,2.584598425E1,2.896653389E1
4.581228792E0,1.129133011E1,2.554541515E0,2.317872303E1,2.590893706E1
4.591173792E0,9.849454672E0,2.789928782E0,2.086046341E1,2.323691877E1
4.601117792E0,8.694569939E0,2.974482988E0,1.904452522E1,2.114561506E1
4.611061792E0,8.003910275E0,3.032146182E0,1.706182444E1,1.908827764E1
4.621005792E0,7.677197685E0,3.104468054E0,1.482434059E1,1.698052297E1
4.630949792E0,7.818162945E0,3.158554214E0,1.263908291E1,1.519363529E1
4.640893792E0,8.678943840E0,3.141665701E0,1.066960268E1,1.410796055E1
4.650837792E0,9.825427294E0,3.133729275E0,8.712996270E0,1.350094755E1
4.660782042E0,1.072845725E1,3.199037704E0,7.050014809E0,1.323013023E1
4.670727042E0,1.074743497E1,3.294437073E0,5.540109361E0,1.253209822E1
4.680671042E0,1.001525715E1,3.255967072E0,3.577525926E0,1.112229244E1
4.690615042E0,8.711311103E0,2.917388143E0,1.370494378E0,9.288506314E0
4.700559042E0,6.759488298E0,2.509063625E0,-8.080425185E-1,7.255274980E0
4.710503042E0,4.374462243E0,1.993746463E0,-2.401225181E0,5.373716335E0
4.720447042E0,1.792736439E0,1.620751407E0,-3.504797089E0,4.257269277E0
4.730391042E0,-4.300492626E-1,1.400735885E0,-3.996296495E0,4.256452638E0
4.740336042E0,-2.377694231E0,1.256586963E0,-4.002349532E0,4.821954213E0
4.750280042E0,-4.045159045E0,1.250869702E0,-3.926963135E0,5.774861571E0
4.760224042E0,-5.022169431E0,1.043540152E0,-3.986156838E0,6.496199518E0
4.770168042E0,-5.653677492E0,8.362974340E-1,-4.217287917E0,7.102744537E0
4.780112042E0,-5.943119345E0,5.691913239E-1,-4.839795359E0,7.685588164E0
4.790056042E0,-5.986530828E0,2.242051984E-1,-5.898286988E0,8.407057078E0
4.800000042E0,-5.842615063E0,-1.116420579E-1,-7.016997921E0,9.131641394E0
4.809944042E0,-5.723409047E0,-2.597083224E-1,-7.824593713E0,9.697892879E0
4.819889042E0,-5.700715418E0,-2.187542778E-1,-8.298741506E0,1.007050745E1
4.829833042E0,-5.553453877E0,-2.059621780E-1,-8.493212882E0,1.014977514E1
4.839777042E0,-5.360231466E0,-3.027479592E-1,-8.414077250E0,9.981003641E0
4.849721042E0,-5.223829958E0,-3.629668253E-1,-8.296000916E0,9.810391203E0
4.859665042E0,-4.968115430E0,-4.688967016E-1,-8.226191593E0,9.621448081E0
4.869609042E0,-4.642433412E0,-6.961056148E-1,-8.454922391E0,9.670701301E0
4.879553042E0,-4.404549969E0,-8.617819387E-1,-8.733888372E0,9.819548596E0
4.889497042E0,-4.331810898E0,-8.646070209E-1,-8.962985789E0,9.992359342E0
4.899442042E0,-4.350008310E0,-8.354640596E-1,-9.167923681E0,1.018191520E1
4.909386042E0,-4.353488573E0,-7.892691556E-1,-9.142589450E0,1.015690654E1
4.919330042E0,-4.387504458E0,-6.451516619E-1,-8.914285499E0,9.956450271E0
4.929274042E0,-4.431789223E0,-5.963898303E-1,-8.642600471E0,9.730929013E0
4.939218042E0,-4.411340632E0,-6.545301573E-1,-8.181442267E0,9.317957581E0
4.949162042E0,-4.367952538E0,-7.235797808E-1,-7.507461201E0,8.715764496E0
4.959106042E0,-4.354390799E0,-7.995642020E-1,-6.929614207E0,8.223112257E0
4.969050042E0,-4.391989565E0,-9.343727821E-1,-6.579028021E0,7.965314465E0
4.978995042E0,-4.377487885E0,-1.121918423E0,-6.502548194E0,7.918600517E0
4.988939042E0,-4.374309339E0,-1.315640479E0,-6.683724756E0,8.095533872E0
4.998883042E0,-4.435417420E0,-1.418293904E0,-7.096968536E0,8.488312417E0
5.008827042E0,-4.431166202E0,-1.535034880E0,-7.513815955E0,8.857143795E0
5.018771042E0,-4.432829150E0,-1.692983963E0,-7.925189795E0,9.237142538E0
5.028715042E0,-4.528064213E0,-1.774648077E0,-8.262966487E0,9.587979791E0
5.038659042E0,-4.632345211E0,-1.867450114E0,-8.587327327E0,9.934192604E0
5.048603042E0,-4.614897120E0,-1.849486298E0,-8.664998231E0,9.989998465E0
5.058547042E0,-4.564610480E0,-1.920334963E0,-8.589487288E0,9.914769139E0
5.068492042E0,-4.372888758E0,-1.954494251E0,-8.427298974E0,9.693377733E0
5.078436042E0,-4.129470339E0,-1.997503007E0,-8.137328534E0,9.341234352E0
5.088380042E0,-4.112413719E0,-1.820225076E0,-7.510370191E0,8.753903491E0
5.098324042E0,-3.991824836E0,-1.629939430E0,-6.786600083E0,8.040479386E0
5.108268042E0,-3.743205320E0,-1.628188481E0,-5.889395127E0,7.165721092E0
5.118212042E0,-3.366730001E0,-1.591805936E0,-4.360560488E0,5.734387919E0
5.128156042E0,-3.011444700E0,-1.339505305E0,-2.688909361E0,4.253622831E0
5.138100042E0,-2.685806243E0,-7.975999761E-1,-1.453976830E0,3.156543920E0
5.148045042E0,-2.083714939E0,-1.604866277E-1,-3.640178257E-1,2.121351664E0
5.157989042E0,-1.747193645E0,1.266135612E0,1.141030925E0,2.440847515E0
5.167933042E0,-1.667084744E0,3.475577090E0,4.352089627E0,5.813733033E0
5.177877042E0,-5.666601008E-1,4.988370185E0,1.060137152E1,1.173004769E1
5.187821042E0,1.645124064E0,5.405034587E0,1.962980461E1,2.042669971E1
5.197765042E0,4.144520780E0,4.752798438E0,2.812212053E1,2.882047551E1
5.207709042E0,6.441882162E0,3.799354670E0,3.336459375E1,3.419252927E1
5.217653042E0,8.864401149E0,2.944039752E0,3.602709065E1,3.721822455E1
5.227597042E0,1.121712660E1,1.612280546E0,3.689175586E1,3.859306969E1
5.237542042E0,1.182672573E1,9.341263220E-1,3.499465246E1,3.695090979E1
5.247486042E0,1.081329918E1,1.034347160E0,3.157591879E1,3.339215418E1
5.257430042E0,9.460657516E0,1.346693287E0,2.733437662E1,2.895661874E1
5.267374042E0,8.009576812E0,1.415835735E0,2.167618040E1,2.315199145E1
5.277318042E0,6.264284681E0,1.607154731E0,1.616642511E1,1.741199327E1
5.287262042E0,4.962522569E0,2.072980329E0,1.197465093E1,1.312692434E1
5.297206042E0,4.395071340E0,2.329663302E0,9.226328010E0,1.048184677E1
5.307150042E0,4.196347284E0,2.524562840E0,7.934182228E0,9.323840179E0
5.317094042E0,4.154864797E0,2.529770662E0,7.411098502E0,8.864932154E0
5.327038042E0,4.235238869E0,2.357535224E0,6.461051089E0,8.077153075E0
5.336983042E0,4.452122915E0,1.981185621E0,4.825716434E0,6.858136337E0
5.346927042E0,4.218001277E0,1.685368403E0,2.604921125E0,5.236183295E0
5.356871042E0,3.698782561E0,1.516343817E0,-1.858315301E-1,4.001852616E0
5.366815042E0,3.059774276E0,1.287402520E0,-3.044708340E0,4.504428126E0
5.376759042E0,2.390490132E0,9.649752085E-1,-5.289957874E0,5.884664352E0
5.386703042E0,1.538596858E0,7.260028669E-1,-6.584869389E0,6.801092951E0
5.396647042E0,5.717242281E-1,5.971717492E-1,-7.360477402E0,7.406761119E0
5.406591042E0,-6.092257842E-2,2.355612221E-1,-7.700573099E0,7.704416052E0
5.416535042E0,-5.330329098E-1,-1.546965685E-1,-7.797778966E0,7.817506759E0
5.426479042E0,-8.891938318E-1,-5.325288798E-1,-7.888440630E0,7.956239580E0
5.436424042E0,-1.088283777E0,-9.546838166E-1,-8.016520965E0,8.146188750E0
5.446368042E0,-1.290427139E0,-1.336867626E0,-8.264950447E0,8.471235042E0
5.456312042E0,-1.655283455E0,-1.513657460E0,-8.604056795E0,8.891620525E0
5.466256042E0,-1.952667142E0,-1.699882508E0,-9.080375660E0,9.442231285E0
5.476200042E0,-2.198775718E0,-1.794788080E0,-9.671726214E0,1.007959160E1
5.486144042E0,-2.346979685E0,-1.833696330E0,-1.026593781E1,1.068925793E1
5.496088042E0,-2.425451365E0,-1.880754430E0,-1.073118205E1,1.116146584E1
5.506032042E0,-2.520167780E0,-1.842908180E0,-1.105167963E1,1.148421434E1
5.515976042E0,-2.686874530E0,-1.871817838E0,-1.120412824E1,1.167285254E1
5.525920042E0,-2.804137808E0,-1.920417701E0,-1.123831340E1,1.174099149E1
5.535865042E0,-2.842487357E0,-1.995585559E0,-1.112359922E1,1.165317792E1
5.545809042E0,-2.663958999E0,-1.661486035E0,-1.096701897E1,1.140757285E1
5.555753042E0,-2.662928427E0,-1.415725515E0,-1.033956127E1,1.077042218E1
5.565697042E0,-2.549844739E0,-2.010030667E0,-9.923075795E0,1.044075499E1
5.575641042E0,-2.004831176E0,-2.368720948E0,-9.214165217E0,9.722706805E0
5.585585042E0,-2.796114259E0,-1.985712097E0,-8.629105682E0,9.285621808E0
5.595529042E0,-3.512837302E0,-1.846820552E0,-8.432457388E0,9.319716179E0
5.605473042E0,-3.826604742E0,-2.063541168E0,-8.244106293E0,9.320214298E0
5.615417042E0,-4.231188503E0,-2.071684586E0,-8.070924044E0,9.345300856E0
5.625361042E0,-4.349470074E0,-1.876780223E0,-8.137624403E0,9.416003656E0
5.635305042E0,-4.270463666E0,-1.661616721E0,-8.203088075E0,9.396195188E0
5.645250042E0,-3.832106679E0,-1.461788418E0,-8.122259674E0,9.099064193E0
5.655194042E0,-3.583721636E0,-1.292822889E0,-7.690795970E0,8.582703213E0
5.665138042E0,-3.660560774E0,-1.184926119E0,-7.913511736E0,8.799285374E0
5.675082042E0,-3.599803233E0,-1.450935109E0,-8.366934074E0,9.223306447E0
5.685026042E0,-3.497267921E0,-1.789908725E0,-8.351969880E0,9.229845992E0
5.694970042E0,-3.435702588E0,-1.928963699E0,-7.889812387E0,8.818962111E0
5.704914042E0,-3.208808693E0,-2.238965239E0,-7.317793897E0,8.298164020E0
5.714858042E0,-3.042514172E0,-2.501490896E0,-6.765709736E0,7.828740475E0
5.724802042E0,-2.727633716E0,-2.743214207E0,-6.233492074E0,7.336322874E0
5.734746042E0,-2.372529386E0,-2.899651784E0,-5.992271039E0,7.067120231E0
5.744690042E0,-1.968935996E0,-2.904250619E0,-6.110694698E0,7.046415423E0
5.754635042E0,-1.614063070E0,-2.984183811E0,-6.287870010E0,7.144778644E0
5.764579042E0,-1.559394089E0,-2.833634965E0,-6.349001480E0,7.125378364E0
5.774523042E0,-1.659017633E0,-2.637576070E0,-6.331697230E0,7.056878690E0
5.784467042E0,-1.496513570E0,-2.553494863E0,-6.116219147E0,6.794705699E0
5.794411042E0,-1.103532365E0,-2.292294185E0,-5.421670500E0,5.988898674E0
5.804355042E0,-9.854172206E-1,-1.554792476E0,-4.429246561E0,4.796524975E0
5.814299042E0,-1.067210997E0,-2.484809375E-1,-2.539742212E0,2.766039152E0
5.824243042E0,-1.128006764E0,1.610183735E0,9.255247754E-1,2.172944322E0
5.834187042E0,-1.051947937E0,3.439191914E0,5.995435553E0,6.991414946E0
5.844131042E0,-2.039523438E-1,3.823199908E0,1.298835464E1,1.354089400E1
5.854075042E0,1.645524891E0,2.764822007E0,2.019330780E1,2.044802369E1
5.864019042E0,3.974757983E0,1.028767893E0,2.558391204E1,2.591126434E1
5.873964042E0,6.359274454E0,-1.904236409E-1,2.932656977E1,3.000873752E1
5.883908042E0,7.580597005E0,-4.592103504E-1,3.094538780E1,3.186366820E1
5.893852042E0,7.647858696E0,-4.367978266E-1,3.076943338E1,3.170865128E1
5.903796042E0,5.433315815E0,2.044125196E0,2.896624797E1,2.954222216E1
5.913740042E0,3.212000981E0,3.402762883E0,2.643704887E1,2.684796638E1
5.923684042E0,2.109810478E0,3.121811480E0,2.408417841E1,2.437713390E1
5.933628042E0,9.764496383E-1,3.035508916E0,2.222072224E1,2.244834660E1
5.943572042E0,7.011127317E-1,2.815416210E0,2.046276387E1,2.066743411E1
5.953516042E0,1.644641815E0,2.549945018E0,1.825584927E1,1.850629889E1
5.963460042E0,3.121064790E0,2.500043710E0,1.592659922E1,1.642095693E1
5.973404042E0,4.543314629E0,2.869765495E0,1.375238575E1,1.476500510E1
5.983348042E0,6.268297625E0,3.234943408E0,1.202564567E1,1.394175626E1
5.993292042E0,7.991315373E0,3.548141329E0,1.011447271E1,1.336985364E1
6.003237042E0,9.250277621E0,3.790524205E0,7.983887655E0,1.279367703E1
6.013181042E0,9.519752401E0,3.650036955E0,5.744811611E0,1.170262005E1
6.023125042E0,8.730356069E0,3.054602414E0,3.356818094E0,9.839610800E0
6.033069042E0,7.262642959E0,2.152426155E0,1.065427011E0,7.649448073E0
6.043013042E0,5.500254740E0,1.278141261E0,-1.054914302E0,5.744500977E0
6.052957042E0,3.931238034E0,5.501763614E-1,-2.775132403E0,4.843416807E0
6.062901042E0,2.774256198E0,-4.072483376E-2,-3.698694268E0,4.623688490E0
6.072845042E0,1.802663549E0,-6.057538538E-1,-3.893038759E0,4.332699434E0
6.082789042E0,8.027601439E-1,-1.082592098E0,-3.910902588E0,4.136615591E0
6.092733042E0,-6.531632245E-2,-1.410331751E0,-3.960363600E0,4.204495417E0
6.102677042E0,-7.237326854E-1,-1.360171850E0,-4.159290555E0,4.435488065E0
6.112621042E0,-1.346623413E0,-1.267525495E0,-4.786835958E0,5.131648272E0
6.122565042E0,-1.895825189E0,-1.163144510E0,-5.646080205E0,6.068383638E0
6.132510042E0,-2.256461278E0,-1.192369332E0,-6.576536522E0,7.054374157E0
6.142454042E0,-2.628707598E0,-1.325963299E0,-7.515134502E0,8.071278021E0
6.152398042E0,-3.077221490E0,-1.413033895E0,-8.360316195E0,9.020024600E0
6.162342042E0,-3.427737803E0,-1.487850774E0,-8.918266284E0,9.669465336E0
6.172286042E0,-3.523641495E0,-1.581212535E0,-9.006670337E0,9.799815969E0
6.182230042E0,-3.465864865E0,-1.659353848E0,-9.005647659E0,9.791188090E0
6.192174042E0,-3.243764810E0,-1.806724148E0,-9.034742235E0,9.767949096E0
6.202118042E0,-2.846412885E0,-1.904299267E0,-8.989853160E0,9.620077019E0
6.212062042E0,-2.460226803E0,-1.877893533E0,-9.092039686E0,9.604394083E0
6.222006042E0,-2.238043718E0,-1.976963200E0,-9.241937737E0,9.712396013E0
6.231950042E0,-2.277544876E0,-2.143572740E0,-9.374897574E0,9.882854814E0
6.241894042E0,-2.320670430E0,-2.132026097E0,-9.480469637E0,9.990513053E0
6.251838042E0,-2.371629499E0,-2.043230572E0,-9.567576778E0,1.006667488E1
6.261782042E0,-2.418589658E0,-2.009108707E0,-9.674733437E0,1.017283445E1
6.271726042E0,-2.456857637E0,-1.997658251E0,-9.738971533E0,1.024081806E1
6.281671042E0,-2.502989538E0,-2.012625369E0,-9.754480103E0,1.026963970E1
6.291615042E0,-2.565331966E0,-2.101772895E0,-9.595203702E0,1.015215797E1
6.301559042E0,-2.649143617E0,-2.285232210E0,-9.392963716E0,1.002337346E1
6.311503042E0,-2.725010947E0,-2.484739793E0,-9.140895512E0,9.856753383E0
6.321447042E0,-2.790245116E0,-2.610393534E0,-8.810120276E0,9.603012105E0
6.331391042E0,-2.886191493E0,-2.675791132E0,-8.596960614E0,9.455035237E0
6.341335042E0,-2.802453226E0,-2.537380814E0,-8.500110843E0,9.302899000E0
6.351279042E0,-3.051298152E0,-2.639377597E0,-8.486771005E0,9.396915270E0
6.361223042E0,-3.179279962E0,-2.876133113E0,-8.721639040E0,9.718382082E0
6.371167042E0,-3.182267304E0,-2.895136856E0,-8.749264210E0,9.749782912E0
6.381111042E0,-3.318793943E0,-2.722435249E0,-8.598147599E0,9.610108691E0
6.391055042E0,-3.339686044E0,-2.603506683E0,-8.231542965E0,9.256892001E0
6.400999042E0,-3.256958760E0,-2.550106694E0,-7.752973507E0,8.787458263E0
6.410943042E0,-3.050447382E0,-2.643187058E0,-7.519821630E0,8.534599253E0
6.420887042E0,-2.900044717E0,-2.877427102E0,-7.365115998E0,8.422278774E0
6.430831042E0,-2.893852515E0,-2.942672965E0,-7.353879404E0,8.432867178E0
6.440776042E0,-2.706916446E0,-3.019952983E0,-7.247816175E0,8.305320702E0
6.450720042E0,-2.733025726E0,-2.882988389E0,-6.834240857E0,7.904928827E0
6.460664042E0,-2.653503885E0,-2.497051983E0,-6.284796714E0,7.264641850E0
6.470608042E0,-2.428598921E0,-2.066814147E0,-5.568711601E0,6.417192715E0
6.480552042E0,-1.746679090E0,-1.779938638E0,-4.520311098E0,5.162584800E0
6.490496042E0,-9.478104877E-1,-1.610839792E0,-3.053779126E0,3.580323520E0
6.500440042E0,-6.003577508E-1,-1.014607691E0,-1.945624171E0,2.274931122E0
6.510384042E0,-4.007449181E-1,-1.341041368E-1,-9.499310535E-1,1.039687172E0
6.520328042E0,-3.328661265E-1,9.444206375E-1,3.408909184E-1,1.057798098E0
6.530272042E0,2.424125509E-1,2.190414931E0,2.105097622E0,3.047641287E0
6.540216042E0,1.132881295E0,3.369936322E0,4.935063459E0,6.082330326E0
6.550160042E0,1.911738825E0,4.428207511E0,9.094761565E0,1.029458377E1
6.560104042E0,2.730994111E0,5.359196509E0,1.436324086E1,1.557183368E1
6.570048042E0,3.667442654E0,5.687297813E0,1.987417613E1,2.099472240E1
6.579992042E0,4.806762392E0,5.268498008E0,2.476959371E1,2.577585708E1
6.589936042E0,5.330680808E0,4.895677784E0,2.893927593E1,2.983061365E1
6.599880042E0,5.298952646E0,4.628502713E0,3.200842564E1,3.277256853E1
6.609824042E0,4.791898769E0,4.611731730E0,3.259538552E1,3.326694336E1
6.619768042E0,3.777420595E0,5.112614747E0,3.070248978E1,3.135363798E1
6.629713042E0,3.037488198E0,5.871469903E0,2.740047589E1,2.818663818E1
6.639657042E0,3.024116201E0,6.089953455E0,2.365949514E1,2.461715910E1
6.649601042E0,3.204140861E0,6.694131045E0,2.018328801E1,2.150448846E1
6.659545875E0,3.640319467E0,6.915972068E0,1.700859841E1,1.871830695E1
6.669489875E0,4.301981035E0,6.501818461E0,1.473788600E1,1.667291120E1
6.679433875E0,4.842117581E0,6.305440308E0,1.269917357E1,1.498244605E1
6.689377875E0,5.343513692E0,5.714742304E0,1.100412774E1,1.350193488E1
6.699321875E0,5.256762646E0,5.279963813E0,9.665891277E0,1.220413969E1
6.709265875E0,4.998558959E0,5.003491670E0,8.234432659E0,1.085478704E1
6.719209875E0,4.627715093E0,4.541232143E0,6.633371458E0,9.275783162E0
6.729153875E0,4.163001782E0,4.205150267E0,4.796557539E0,7.617140988E0
6.739097875E0,3.148971797E0,3.858101646E0,2.774119665E0,5.700588706E0
6.749041875E0,1.960642160E0,3.036367872E0,4.510612321E-1,3.642403570E0
6.758985875E0,3.220496546E-1,2.105801919E0,-2.019695529E0,2.935521714E0
6.768929875E0,-1.206036906E0,1.323396956E0,-4.019669570E0,4.400414523E0
6.778873875E0,-1.976802987E0,5.402670850E-1,-4.595340230E0,5.031579315E0
6.788817875E0,-2.484574317E0,-2.994829836E-1,-3.793420331E0,4.544539295E0
6.798761875E0,-2.997878867E0,-1.052051505E0,-3.107372950E0,4.444081089E0
6.808705875E0,-3.254967198E0,-1.674821195E0,-3.742284091E0,5.234933401E0
6.818649875E0,-3.034410224E0,-2.160964260E0,-5.363977193E0,6.530670966E0
6.828593875E0,-2.987378730E0,-2.441542026E0,-7.493678729E0,8.428569275E0
6.838537875E0,-2.960685021E0,-2.596439154E0,-9.355179593E0,1.015019888E1
6.848482875E0,-2.643108121E0,-2.689425085E0,-1.051991747E1,1.117531616E1
6.858426875E0,-2.126510857E0,-2.823018760E0,-1.107170050E1,1.162213557E1
6.868370875E0,-1.586725875E0,-2.937702832E0,-1.130159665E1,1.178447639E1
6.878314875E0,-1.191998473E0,-3.150047392E0,-1.121358786E1,1.170846752E1
6.888258875E0,-1.044328064E0,-3.455863203E0,-1.081114857E1,1.139800618E1
6.898202875E0,-1.102569621E0,-3.654381729E0,-1.028252168E1,1.096815471E1
6.908146875E0,-1.067916902E0,-3.803646526E0,-9.788843604E0,1.055602352E1
6.918090875E0,-9.689972158E-1,-3.910700566E0,-9.558149312E0,1.037259624E1
6.928034875E0,-7.654255258E-1,-3.909672334E0,-9.541783540E0,1.034006998E1
6.937978875E0,-5.481212112E-1,-3.761423490E0,-9.643829148E0,1.036591454E1
6.947922875E0,-4.303539026E-1,-3.528636771E0,-9.861167815E0,1.048232382E1
6.957866875E0,-3.010535458E-1,-3.344421119E0,-1.004217422E1,1.058872273E1
6.967810875E0,-1.527149472E-1,-3.236925322E0,-1.020534662E1,1.070747903E1
6.977754875E0,-1.613287729E-1,-3.158338159E0,-1.036272326E1,1.083453554E1
6.987698875E0,-3.911819431E-1,-3.039706340E0,-1.044757806E1,1.088782463E1
6.997642875E0,-7.508811615E-1,-3.057398845E0,-1.047012726E1,1.093320973E1
7.007586875E0,-1.242821302E0,-3.201207898E0,-1.039517648E1,1.094769523E1
7.017530875E0,-1.613883268E0,-3.276510972E0,-1.021366370E1,1.084707654E1
7.027474875E0,-1.937904969E0,-3.245824492E0,-9.924069822E0,1.061969934E1
7.037418875E0,-2.153955641E0,-3.215335063E0,-9.548977954E0,1.030344042E1
7.047362875E0,-2.316584542E0,-3.146938720E0,-9.176314436E0,9.973692088E0
7.057306875E0,-2.454789770E0,-3.027227797E0,-8.849932798E0,9.670129858E0
7.067250875E0,-2.512549443E0,-2.896348984E0,-8.631659161E0,9.444960668E0
7.077194875E0,-2.510280139E0,-2.795030478E0,-8.607400233E0,9.391540902E0
7.087138875E0,-2.573858084E0,-2.649435977E0,-8.697095352E0,9.449006508E0
7.097082875E0,-2.605097126E0,-2.552568664E0,-8.817087234E0,9.541654212E0
7.107026875E0,-2.403057991E0,-2.603148249E0,-9.109463219E0,9.774118306E0
7.116970875E0,-2.251796808E0,-2.802817215E0,-8.920636745E0,9.617906900E0
7.126915875E0,-2.215396429E0,-2.589035994E0,-8.518433093E0,9.174682069E0
7.136859875E0,-2.044731260E0,-2.512182823E0,-8.226852329E0,8.841554597E0
7.146803875E0,-1.628003709E0,-2.464536786E0,-7.640681823E0,8.191724872E0
7.156747875E0,-1.548174890E0,-2.085121049E0,-6.774111600E0,7.254871690E0
7.166691875E0,-2.305971261E0,-1.437066098E0,-5.774098560E0,6.381447845E0
7.176635875E0,-3.253220635E0,-9.841100755E-1,-5.118459624E0,6.144147302E0
7.186579875E0,-3.896897044E0,-1.057312245E0,-4.967999071E0,6.401931781E0
7.196523875E0,-3.891243664E0,-8.008367023E-1,-5.088789098E0,6.455919079E0
7.206467875E0,-3.335875121E0,-3.642406046E-2,-4.461475244E0,5.570830359E0
7.216411875E0,-2.843851220E0,1.426963279E0,-2.927028447E0,4.323333146E0
7.226355875E0,-2.266042818E0,3.608486348E0,-3.475760400E-1,4.275152966E0
7.236299875E0,-4.105102068E-1,5.462254854E0,3.163797412E0,6.325690538E0
7.246243875E0,2.955352652E0,6.113067498E0,8.845811681E0,1.115132673E1
7.256187875E0,7.076331373E0,6.044974333E0,1.706789619E1,1.944040279E1
7.266131875E0,1.063853409E1,5.172360427E0,2.486104650E1,2.753186069E1
7.276075875E0,1.330547370E1,3.755814840E0,3.034603650E1,3.334701946E1
7.286019875E0,1.458782306E1,2.725422884E0,3.269673881E1,3.590695254E1
7.295963875E0,1.375429077E1,2.621856708E0,3.304815647E1,3.589199484E1
7.305907875E0,1.073411267E1,2.511612134E0,3.240355474E1,3.422747040E1
7.315851875E0,6.564561424E0,1.925593803E0,3.138736947E1,3.212426405E1
7.325795875E0,2.779768368E0,8.895079004E-1,3.053952788E1,3.067867500E1
7.335739875E0,4.600413859E-1,-4.127279095E-1,2.928374476E1,2.929026613E1
7.345683875E0,2.793668076E-2,-7.938103956E-1,2.634719822E1,2.635916860E1
7.355627875E0,1.226205707E0,-7.841912873E-1,2.199799712E1,2.204609747E1
7.365571875E0,2.993006675E0,-1.869571922E-1,1.712393123E1,1.738453516E1
7.375515875E0,4.608893199E0,6.960624915E-1,1.329282033E1,1.408635765E1
7.385459875E0,5.465601801E0,1.242715467E0,1.101853411E1,1.236225055E1
7.395403875E0,5.340355026E0,1.307996998E0,1.017993462E1,1.156984515E1
7.405347875E0,4.038520993E0,1.222396977E0,9.811796265E0,1.068060167E1
7.415291875E0,1.875713983E0,9.404357600E-1,9.804160970E0,1.002618046E1
7.425235875E0,1.857794899E-1,3.708115594E-1,8.966349108E0,8.975936249E0
7.435179875E0,-1.162165247E0,9.308474958E-3,7.235296116E0,7.328043709E0
7.445123875E0,-1.954402303E0,3.107619703E-2,4.753556530E0,5.139742579E0
7.455067875E0,-2.243248471E0,7.103402227E-2,1.858743317E0,2.914127014E0
7.465011875E0,-2.396979810E0,2.299239215E-1,-1.100946507E0,2.647727409E0
7.474955875E0,-2.342944813E0,2.948220219E-1,-3.837614756E0,4.505951336E0
7.484899875E0,-1.869859897E0,2.630147767E-1,-6.307796152E0,6.584363682E0
7.494843875E0,-1.210507176E0,2.384883383E-1,-8.594828719E0,8.682930670E0
7.504787875E0,-7.556855994E-1,5.145695955E-2,-1.036319806E1,1.039084128E1
7.514731875E0,-3.986255948E-1,-7.527120709E-2,-1.160840590E1,1.161549205E1
7.524675875E0,-1.393559597E-2,-4.835911931E-1,-1.234670224E1,1.235617704E1
7.534619875E0,1.026098639E-2,-1.304903237E0,-1.258278241E1,1.265026841E1
7.544563875E0,-4.499222676E-1,-1.854768380E0,-1.232071254E1,1.246766030E1
7.554507875E0,-9.173878632E-1,-2.214981130E0,-1.175573585E1,1.199771092E1
7.564451875E0,-1.178013541E0,-2.534020419E0,-1.126944047E1,1.161073916E1
7.574395875E0,-1.400928551E0,-2.686703791E0,-1.091013141E1,1.132307137E1
7.584339875E0,-1.356176009E0,-2.843071786E0,-1.058365563E1,1.104246517E1
7.594283875E0,-8.975581276E-1,-2.968116832E0,-1.051645709E1,1.096408673E1
7.604227875E0,-2.901438108E-1,-2.967981176E0,-1.080324547E1,1.120728372E1
7.614171875E0,4.755585806E-1,-2.939072250E0,-1.134262305E1,1.172686656E1
7.624115875E0,1.168581032E0,-2.920894718E0,-1.195656198E1,1.236351819E1
7.634060875E0,1.474533302E0,-2.820364709E0,-1.239757770E1,1.279955618E1
7.644004875E0,1.574918300E0,-2.730731863E0,-1.254067310E1,1.293080608E1
7.653948875E0,1.499986231E0,-2.670578340E0,-1.224958701E1,1.262673074E1
7.663892875E0,1.229616534E0,-2.624480061E0,-1.161791230E1,1.197396086E1
7.673836875E0,8.299757168E-1,-2.639364733E0,-1.077024379E1,1.111994861E1
7.683780875E0,4.437233419E-1,-2.645190606E0,-9.900987353E0,1.025784940E1
7.693724875E0,4.709639847E-2,-2.707519002E0,-9.335622411E0,9.720428129E0
7.703668875E0,-5.057063860E-1,-2.817098162E0,-9.091846143E0,9.531707470E0
7.713612875E0,-9.778664187E-1,-2.939461967E0,-8.903983290E0,9.427490537E0
7.723556875E0,-1.410449718E0,-3.004540892E0,-8.819920210E0,9.423779862E0
7.733500875E0,-1.715572488E0,-3.002775910E0,-8.777200452E0,9.433933427E0
7.743444875E0,-1.678702139E0,-3.091510916E0,-8.784811773E0,9.463001558E0
7.753388875E0,-1.608772509E0,-3.121372354E0,-8.819387528E0,9.492771499E0
7.763332875E0,-1.683286502E0,-3.030250222E0,-8.542687343E0,9.219185262E0
7.773276875E0,-1.609911547E0,-3.053141487E0,-8.460936837E0,9.137884891E0
7.783220875E0,-1.548844688E0,-3.081099656E0,-8.595703463E0,9.261652821E0
7.793164875E0,-1.528927318E0,-3.080565513E0,-8.809399315E0,9.456903241E0
7.803108875E0,-1.598472346E0,-3.097858946E0,-8.868125240E0,9.528666705E0
7.813052875E0,-1.630333240E0,-3.021256912E0,-8.912381061E0,9.550733793E0
7.822996875E0,-1.466140354E0,-2.982446603E0,-9.012794126E0,9.605988405E0
7.832940875E0,-1.315368729E0,-3.026658570E0,-8.812258603E0,9.409928729E0
7.842884875E0,-1.372622034E0,-2.999898788E0,-8.331353182E0,8.960743821E0
7.852828875E0,-1.425913119E0,-2.877723556E0,-7.633507875E0,8.281603924E0
7.862772875E0,-1.464266468E0,-2.573075434E0,-6.627659313E0,7.258833339E0
7.872716875E0,-1.506607326E0,-2.142966384E0,-5.522411009E0,6.112216775E0
7.882660875E0,-1.469826001E0,-1.838053968E0,-4.527272208E0,5.102452793E0
7.892604875E0,-1.110321056E0,-1.566359438E0,-3.336735247E0,3.849687889E0
7.902548875E0,-9.004595891E-1,-2.745476787E-1,-1.772926657E0,2.007354684E0
7.912492875E0,-7.893166642E-1,2.301517144E0,7.745449895E-1,2.553413774E0
7.922436875E0,-3.749081187E-1,4.861007888E0,5.410808712E0,7.283323740E0
7.932380875E0,6.423676564E-1,5.673779050E0,1.319160619E1,1.437438273E1
7.942324875E0,2.493600079E0,4.846062990E0,2.220010963E1,2.285929211E1
7.952268875E0,5.359124004E0,3.268914562E0,2.900919226E1,2.968062075E1
7.962212875E0,8.076004690E0,2.235562452E0,3.234100591E1,3.340898463E1
7.972156875E0,1.000301659E1,2.626266678E0,3.373236257E1,3.528214707E1
7.982100875E0,1.102493447E1,3.245482722E0,3.291505747E1,3.486378273E1
7.992044875E0,1.047507400E1,3.697899047E0,3.071188275E1,3.265916984E1
8.001988875E0,8.131836244E0,3.877768463E0,2.808534388E1,2.949492143E1
8.011932875E0,5.017242567E0,3.322475057E0,2.516140393E1,2.587098397E1
8.021876875E0,1.947125882E0,2.674276119E0,2.192670786E1,2.217484092E1
8.031820875E0,-2.719143120E-1,2.188200444E0,1.889294902E1,1.902119032E1
8.041764875E0,-1.558379158E0,1.861629357E0,1.667635494E1,1.685215189E1
8.051708875E0,-1.992280566E0,2.014115093E0,1.500496810E1,1.527006579E1
8.061652875E0,-1.164472705E0,2.126968840E0,1.349613153E1,1.371224122E1
8.071596875E0,1.916509715E-1,2.123801696E0,1.255901464E1,1.273876417E1
8.081540875E0,1.440944117E0,2.316316886E0,1.140931405E1,1.173090325E1
8.091484875E0,2.503035731E0,2.458087015E0,9.598120294E0,1.021916302E1
8.101428875E0,3.026219444E0,2.554995843E0,7.685366830E0,8.645858615E0
8.111372875E0,3.099825657E0,2.628026105E0,5.893898068E0,7.159153214E0
8.121316875E0,2.845030019E0,2.517497357E0,4.325735641E0,5.757080648E0
8.131260875E0,2.299787684E0,2.249686401E0,2.944973552E0,4.361534308E0
8.141203875E0,1.524083338E0,1.862363036E0,1.597116085E0,2.888253086E0
8.151147875E0,7.638473623E-1,1.380379681E0,-1.709948051E-1,1.586868010E0
8.161091875E0,4.104029104E-2,1.049859677E0,-2.248474274E0,2.481839279E0
8.171035875E0,-3.903589475E-1,7.328775845E-1,-4.302059096E0,4.381461186E0
8.180979875E0,-4.821076083E-1,3.008588335E-1,-6.096203544E0,6.122633537E0
8.190923875E0,-4.775970662E-1,-1.210702546E-1,-7.535768741E0,7.551858545E0
8.200867875E0,-6.109127060E-1,-4.950526129E-1,-8.675026790E0,8.710590177E0
8.210811875E0,-7.555400768E-1,-8.089280793E-1,-9.537063083E0,9.601082111E0
8.220755875E0,-9.208068033E-1,-1.225379934E0,-1.003941317E1,1.015574999E1
8.230699875E0,-1.273443316E0,-1.743428623E0,-1.026874447E1,1.049325089E1
8.240643875E0,-1.661998544E0,-2.196250890E0,-1.033015427E1,1.069101700E1
8.250587875E0,-2.148025102E0,-2.580590568E0,-1.028256261E1,1.081686431E1
8.260531875E0,-2.614781869E0,-2.896679059E0,-1.029979319E1,1.101424412E1
8.270475875E0,-2.654006161E0,-3.257204343E0,-1.018514098E1,1.101772325E1
8.280419875E0,-2.506825311E0,-3.497687167E0,-1.015218374E1,1.102655083E1
8.290363875E0,-2.435997696E0,-3.478754759E0,-1.030726827E1,1.114789660E1
8.300307875E0,-2.372558622E0,-3.402763175E0,-1.051762653E1,1.130611779E1
8.310251875E0,-2.258550488E0,-3.265430791E0,-1.080663452E1,1.151292483E1
8.320195875E0,-2.087205581E0,-3.153402232E0,-1.121716636E1,1.183744879E1
8.330139875E0,-2.048300108E0,-3.049277354E0,-1.150540369E1,1.207758004E1
8.340083875E0,-2.067269353E0,-2.923670976E0,-1.156911846E1,1.211057209E1
8.350027875E0,-2.190172271E0,-2.841207401E0,-1.151291970E1,1.205888196E1
8.359971875E0,-2.338103026E0,-2.786966875E0,-1.117854784E1,1.175558769E1
8.369915875E0,-2.513853664E0,-2.788456161E0,-1.056448144E1,1.121174456E1
8.379859875E0,-2.661226595E0,-2.898756283E0,-9.873507779E0,1.062878501E1
8.389803875E0,-2.780570313E0,-3.024167072E0,-9.256237103E0,1.012694836E1
8.399747875E0,-2.959088438E0,-3.158139646E0,-8.744347286E0,9.756723829E0
8.409691875E0,-3.159423110E0,-3.269106935E0,-8.369324416E0,9.524421543E0
8.419635875E0,-3.327729658E0,-3.388557365E0,-7.971447119E0,9.279012601E0
8.429579875E0,-3.557755613E0,-3.442928869E0,-7.646917879E0,9.109705662E0
8.439523875E0,-3.761046052E0,-3.431548433E0,-7.408619283E0,8.989362143E0
8.449467875E0,-3.832551360E0,-3.374326411E0,-7.146172855E0,8.783069801E0
8.459411875E0,-3.882782451E0,-3.356816339E0,-7.009369644E0,8.687662419E0
8.469355875E0,-3.932441976E0,-3.310541475E0,-7.059919993E0,8.733055310E0
8.479299875E0,-3.902142874E0,-3.359527109E0,-7.147095546E0,8.808752247E0
8.489243875E0,-3.870937454E0,-3.479609915E0,-7.125237485E0,8.823879597E0
8.499187875E0,-3.902209240E0,-3.523018474E0,-7.031211333E0,8.779341031E0
8.509131875E0,-3.946727601E0,-3.469254496E0,-6.869900687E0,8.649157240E0
8.519075875E0,-3.872964976E0,-3.400494456E0,-6.651701310E0,8.414769786E0
8.529019875E0,-3.882458515E0,-3.087777176E0,-6.492289839E0,8.170537275E0
8.538963875E0,-3.851437574E0,-2.572175547E0,-6.401421769E0,7.901130242E0
8.548907875E0,-3.389225117E0,-2.167205577E0,-5.939871216E0,7.173959644E0
8.558851875E0,-2.759508643E0,-1.673208826E0,-5.094736885E0,6.030825785E0
8.568795875E0,-2.344228277E0,-9.593257749E-1,-3.816020404E0,4.580144526E0
8.578739875E0,-2.013496896E0,2.482523113E-2,-2.133027433E0,2.933358497E0
8.588683875E0,-1.096496338E0,1.228095966E0,2.061535281E-1,1.659223673E0
8.598627875E0,-2.016277832E-1,2.119256655E0,3.473738433E0,4.074157733E0
8.608571875E0,4.867830420E-1,2.456179068E0,8.466569459E0,8.829075362E0
8.618515875E0,2.119784659E0,2.657404563E0,1.540961063E1,1.578009460E1
8.628459875E0,5.073923721E0,2.317078485E0,2.186191136E1,2.256228541E1
8.638403875E0,9.168003788E0,1.154706831E0,2.724275309E1,2.876722505E1
8.648347875E0,1.345819830E1,8.557955593E-1,3.125337936E1,3.403864287E1
8.658291875E0,1.677726384E1,8.464800677E-1,3.213960909E1,3.626496357E1
8.668235625E0,1.769842133E1,7.754114006E-1,3.017463122E1,3.499062374E1
8.678179625E0,1.540402186E1,1.603008762E0,2.640258772E1,3.060964170E1
8.688122625E0,1.164601870E1,2.049992585E0,2.234318866E1,2.527944423E1
8.698066625E0,8.348498973E0,1.632869616E0,1.975377026E1,2.150756001E1
8.708010625E0,5.665322807E0,1.247445864E0,1.870219180E1,1.958121502E1
8.717954625E0,4.026431875E0,1.092156681E0,1.801972583E1,1.849636394E1
8.727898625E0,3.421331886E0,1.127757745E0,1.709050971E1,1.746604911E1
8.737842625E0,3.825381504E0,1.390440546E0,1.531308596E1,1.584479316E1
8.747786625E0,4.945668554E0,1.766714721E0,1.257721352E1,1.362964483E1
8.757730625E0,6.150849867E0,2.476504574E0,9.141538705E0,1.129308456E1
8.767674625E0,7.029134402E0,3.289754331E0,5.467170609E0,9.493216971E0
8.777618625E0,7.134281373E0,3.968881824E0,2.275907655E0,8.475243318E0
8.787562625E0,6.460275164E0,4.190426393E0,5.570987338E-1,7.720439595E0
8.797506625E0,5.027736565E0,3.982938530E0,2.046507937E-1,6.417461823E0
8.807450625E0,3.198234004E0,3.400008260E0,6.718117493E-1,4.715939772E0
8.817394625E0,1.334026756E0,2.675885565E0,1.189006745E0,3.217720930E0
8.827338625E0,-2.475822204E-1,1.865499921E0,1.472411932E0,2.389431691E0
8.837282625E0,-1.300480403E0,1.295036645E0,8.821226478E-1,2.036298003E0
8.847226625E0,-1.829182572E0,9.072098342E-1,-7.618857676E-1,2.179313766E0
8.857170625E0,-2.044406886E0,6.846139356E-1,-2.491702073E0,3.294977234E0
8.867114625E0,-2.092122066E0,6.585274601E-1,-3.977295967E0,4.541972740E0
8.877058625E0,-1.877821759E0,7.075589946E-1,-5.242014799E0,5.612982580E0
8.887002625E0,-1.563738570E0,7.800283621E-1,-6.445417389E0,6.678108106E0
8.896946625E0,-1.222168936E0,8.310628603E-1,-7.582824794E0,7.725515791E0
8.906890625E0,-9.427182207E-1,7.295475952E-1,-8.700651628E0,8.781930089E0
8.916834625E0,-8.119507974E-1,5.112233801E-1,-9.620975305E0,9.668701013E0
8.926778625E0,-7.031387919E-1,2.066556577E-1,-1.013741367E1,1.016387065E1
8.936722625E0,-7.181135112E-1,-4.726026669E-2,-1.029009851E1,1.031523377E1
8.946666625E0,-9.301623483E-1,-3.858846581E-1,-9.604377984E0,9.657027774E0
8.956610625E0,-1.299845687E0,-6.958750883E-1,-8.359656045E0,8.488680118E0
8.966554625E0,-1.629108248E0,-1.096134249E0,-7.330219231E0,7.588650601E0
8.976498625E0,-1.702763431E0,-1.563082805E0,-6.591847456E0,6.985347811E0
8.986442625E0,-1.708358047E0,-1.931406374E0,-6.363472754E0,6.866047137E0
8.996385625E0,-1.725943694E0,-2.230005989E0,-6.708723357E0,7.277278160E0
9.006329625E0,-1.737019929E0,-2.402827611E0,-7.295953377E0,7.875389162E0
9.016273625E0,-1.884645167E0,-2.397753251E0,-7.973093110E0,8.536470101E0
9.026217625E0,-1.938102605E0,-2.410255329E0,-8.650257400E0,9.186540456E0
9.036161625E0,-1.851184037E0,-2.417805107E0,-9.263207569E0,9.750880900E0
9.046105625E0,-1.736069902E0,-2.378333917E0,-9.757329451E0,1.019195217E1
9.056049625E0,-1.629536849E0,-2.450052940E0,-9.894908588E0,1.032314708E1
9.065993625E0,-1.565005515E0,-2.613738433E0,-9.804117116E0,1.026652732E1
9.075937625E0,-1.539095187E0,-2.841276106E0,-9.667741921E0,1.019347329E1
9.085881625E0,-1.656082916E0,-3.037095850E0,-9.447236987E0,1.006065845E1
9.095825625E0,-1.825459065E0,-3.205443913E0,-9.189163107E0,9.901913456E0
9.105769625E0,-1.953872984E0,-3.440692602E0,-8.868384272E0,9.711036238E0
9.115713625E0,-2.031791080E0,-3.685804958E0,-8.556186810E0,9.535285308E0
9.125657625E0,-2.231539275E0,-3.821016850E0,-8.360650072E0,9.459408381E0
9.135601625E0,-2.424817235E0,-3.876958624E0,-8.190702503E0,9.380733142E0
9.145545625E0,-2.516995081E0,-3.849393387E0,-8.088363365E0,9.304553488E0
9.155489625E0,-2.425395670E0,-3.911518592E0,-7.942671801E0,9.179790694E0
9.165433625E0,-2.476909202E0,-3.982591791E0,-7.823183364E0,9.121311009E0
9.175377625E0,-2.574324107E0,-3.930021229E0,-7.629248178E0,8.959778972E0
9.185321625E0,-2.528881301E0,-3.909849504E0,-7.267046497E0,8.630882259E0
9.195265625E0,-2.468324904E0,-3.871304659E0,-6.931247919E0,8.313953651E0
9.205209625E0,-2.278385705E0,-3.837699541E0,-6.833197129E0,8.161590666E0
9.215153625E0,-1.922642567E0,-3.746321886E0,-6.890957095E0,8.075690175E0
9.225097625E0,-1.797165266E0,-3.340728018E0,-6.987571809E0,7.950875830E0
9.235040625E0,-1.829165615E0,-2.678967925E0,-7.364079287E0,8.046886338E0
9.244984625E0,-1.673725281E0,-1.958592126E0,-7.505106527E0,7.934989818E0
9.254928625E0,-1.272637131E0,-1.124613990E0,-6.213268309E0,6.441200585E0
9.264872625E0,-6.534000367E-1,1.519603640E-1,-2.671136164E0,2.754086412E0
9.274816625E0,-4.420847328E-1,2.029609776E0,2.583426760E0,3.314943224E0
9.284760625E0,-1.130742895E0,3.971978509E0,8.970548578E0,9.875521989E0
9.294704625E0,-1.764330811E0,3.857468392E0,1.634036223E1,1.688195378E1
9.304648625E0,-2.278083404E0,1.603549776E0,2.337489010E1,2.354031697E1
9.314592625E0,-2.130628759E0,-8.282863100E-1,2.898767685E1,2.907767264E1
9.324536625E0,-1.462594164E0,-2.600182541E0,3.300150271E1,3.313607267E1
9.334480625E0,1.568574071E-2,-3.356694717E0,3.493740822E1,3.509829253E1
9.344424625E0,1.637705117E0,-2.794369742E0,3.411410389E1,3.426751617E1
9.354368625E0,2.423320347E0,-1.251710823E0,3.094246887E1,3.106244744E1
9.364312625E0,2.690657971E0,-6.161898181E-2,2.709567457E1,2.722901059E1
9.374256625E0,2.718216483E0,5.752498068E-1,2.324456268E1,2.341002579E1
9.384200625E0,2.792479337E0,1.126538747E0,1.888112946E1,1.911973012E1
9.394144625E0,2.964177563E0,1.729400860E0,1.439223253E1,1.479572685E1
9.404088625E0,3.319201201E0,2.108788092E0,1.051019121E1,1.122177362E1
9.414032625E0,3.845020255E0,2.229597123E0,7.278826298E0,8.528575284E0
9.423976625E0,4.188729531E0,2.552230110E0,4.522702024E0,6.671893825E0
9.433920625E0,4.095683958E0,2.956674708E0,2.163392608E0,5.495163327E0
9.443863625E0,3.075681041E0,3.435604647E0,4.772082263E-1,4.635830114E0
9.453807625E0,2.062888765E0,3.645665284E0,-5.151151407E-1,4.220394417E0
9.463751625E0,1.222057473E0,3.249700027E0,-9.235016388E-1,3.592607689E0
9.473695625E0,2.915040193E-1,2.800192400E0,-1.130579612E0,3.033852720E0
9.483639625E0,-6.772675670E-1,2.571130358E0,-1.468934593E0,3.037625966E0
9.493583625E0,-1.747289978E0,2.280707050E0,-2.304671863E0,3.683226753E0
9.503527625E0,-2.671558918E0,1.858024987E0,-3.685801742E0,4.916769100E0
9.513471625E0,-3.328812562E0,1.420886852E0,-5.371899585E0,6.477439129E0
9.523415625E0,-3.554122446E0,1.222460420E0,-6.928109134E0,7.881934534E0
9.533359625E0,-3.049986329E0,1.261072947E0,-8.166259387E0,8.807980130E0
9.543303625E0,-1.850605601E0,1.292279975E0,-9.198600513E0,9.471482462E0
9.553247625E0,-5.054350021E-1,9.933021909E-1,-9.601984134E0,9.666447801E0
9.563191625E0,6.029987188E-1,6.261299385E-1,-9.416405203E0,9.456443999E0
9.573135625E0,1.470172156E0,1.036720106E-1,-8.875427828E0,8.996964665E0
9.583079625E0,1.945347159E0,-5.110631664E-1,-8.270930395E0,8.511982773E0
9.593023625E0,1.787005290E0,-8.969441700E-1,-7.648153396E0,7.905197475E0
9.602967625E0,1.277359343E0,-1.216649749E0,-7.022122421E0,7.240309855E0
9.612911625E0,8.170879418E-1,-1.573185039E0,-6.848735520E0,7.074441469E0
9.622854625E0,5.531423615E-1,-1.979085155E0,-6.961317810E0,7.258284245E0
9.632798625E0,2.837988509E-1,-2.315870305E0,-6.649565907E0,7.047022336E0
9.642742625E0,7.268980756E-2,-2.352216451E0,-6.753776738E0,7.152042105E0
9.652686625E0,1.888084207E-1,-2.487531546E0,-7.148473735E0,7.571270603E0
9.662630167E0,4.081414267E-1,-2.608773855E0,-7.483491125E0,7.935673876E0
9.672574167E0,6.189554049E-1,-2.621948217E0,-7.881015835E0,8.328753138E0
9.682518167E0,8.203071995E-1,-2.648082932E0,-8.217571628E0,8.672585000E0
9.692462167E0,9.883962308E-1,-2.640538854E0,-8.490521409E0,8.946414161E0
9.702406167E0,1.083582470E0,-2.684797014E0,-8.746386210E0,9.213118783E0
9.712350167E0,1.136604290E0,-2.823647336E0,-8.982934150E0,9.484616995E0
9.722294167E0,1.106284065E0,-3.057026669E0,-9.130034893E0,9.691584682E0
9.732238167E0,8.898373179E-1,-3.197689336E0,-9.089277461E0,9.676362556E0
9.742182167E0,6.926407009E-1,-3.291808165E0,-8.972403899E0,9.582264026E0
9.752126167E0,6.656416943E-1,-3.471994793E0,-8.892538535E0,9.569486314E0
9.762070167E0,6.298329071E-1,-3.615988326E0,-8.936466912E0,9.660874802E0
9.772014167E0,5.181550350E-1,-3.625476018E0,-9.053346321E0,9.766045290E0
9.781958167E0,4.911763474E-1,-3.560014977E0,-9.206035833E0,9.882613854E0
9.791901167E0,5.207607736E-1,-3.485328199E0,-9.307876203E0,9.952651097E0
9.801845167E0,6.546353341E-1,-3.466907716E0,-9.143545470E0,9.800633668E0
9.811789167E0,7.008518728E-1,-3.357048182E0,-8.801710811E0,9.446220357E0
9.821733167E0,8.286076145E-1,-3.208764254E0,-8.474361459E0,9.099316499E0
9.831677167E0,1.017861228E0,-3.154348896E0,-8.112111831E0,8.763122549E0
9.841621167E0,8.408357504E-1,-3.065738436E0,-7.053893852E0,7.737129661E0
9.851565167E0,2.961445890E-1,-2.862640078E0,-5.497023568E0,6.204810871E0
9.861509167E0,-2.391247712E-1,-2.526347702E0,-3.637587356E0,4.435273965E0
9.871453167E0,-6.131359635E-1,-2.231903265E0,-1.054859923E0,2.543630742E0
9.881397167E0,-8.314977470E-1,-1.556755679E0,1.858703556E0,2.563133952E0
9.891341167E0,-6.825051373E-1,-2.327770704E-1,4.740578050E0,4.795109871E0
9.901285167E0,-2.576469596E-1,1.249692365E0,7.315756727E0,7.426197510E0
9.911229167E0,9.285803841E-1,2.582883554E0,1.084701539E1,1.118889145E1
9.921173167E0,3.082831894E0,3.345916252E0,1.688592616E1,1.748809625E1
9.931117167E0,4.992890083E0,2.993085027E0,2.404754911E1,2.474211244E1
9.941061167E0,6.723867061E0,1.009142590E0,2.968310258E1,3.045185274E1
9.951004167E0,7.723336310E0,-1.567440588E0,3.278180177E1,3.371577258E1
9.960948167E0,6.581296155E0,-3.114501876E0,3.197555961E1,3.279405424E1
9.970892167E0,3.093401321E0,-2.795760795E0,2.765499115E1,2.796755166E1
9.980836167E0,-1.822259907E-1,-1.285106172E0,2.342443941E1,2.346037224E1
9.990780167E0,-1.948710331E0,-3.638232596E-1,1.934793490E1,1.944922683E1
1.000072417E1,-3.017952066E0,5.756142345E-1,1.625741129E1,1.654517417E1
1.001066817E1,-3.840956148E0,1.557923514E0,1.353302395E1,1.415354397E1
1.002061217E1,-4.058174070E0,1.828264267E0,1.090020634E1,1.177394689E1
1.003055617E1,-3.534208291E0,1.793233306E0,9.155027062E0,9.976012953E0
1.004050017E1,-2.643889309E0,1.965991631E0,8.420865283E0,9.042469015E0
1.005044417E1,-1.623760531E0,2.195751100E0,7.822367678E0,8.285370072E0
1.006038817E1,-1.100294031E0,2.543896951E0,6.800567327E0,7.343689442E0
1.007033217E1,-1.215347428E0,2.871883064E0,5.680210403E0,6.479936105E0
1.008027617E1,-1.744081903E0,3.162867705E0,4.375200747E0,5.673441229E0
1.009022017E1,-2.216632530E0,3.236349079E0,2.774163519E0,4.804518536E0
1.010016317E1,-2.491857609E0,3.180432448E0,1.168432147E0,4.205917091E0
1.011010717E1,-2.631903686E0,3.016351098E0,-3.001697391E-1,4.014398191E0
1.012005117E1,-2.641340800E0,2.715274749E0,-1.711615677E0,4.156804831E0
1.012999517E1,-2.506457229E0,2.313864710E0,-3.136426595E0,4.633947510E0
1.013993917E1,-2.407813093E0,1.973258989E0,-4.599254941E0,5.553778978E0
1.014988317E1,-2.316478707E0,1.740699435E0,-5.959495642E0,6.626590106E0
1.015982717E1,-2.122758699E0,1.708365064E0,-7.124897761E0,7.628157300E0
1.016977117E1,-1.811001825E0,1.740113398E0,-8.041845256E0,8.424903404E0
1.017971517E1,-1.521338070E0,1.779738224E0,-8.530623953E0,8.846099858E0
1.018965917E1,-1.215382511E0,1.682633075E0,-8.335553822E0,8.590102807E0
1.019960317E1,-1.050369700E0,1.231459723E0,-7.469911551E0,7.643255075E0
1.020954717E1,-1.229180624E0,6.968131278E-1,-6.541380723E0,6.692241426E0
1.021949117E1,-1.429118124E0,9.138949558E-2,-6.020293821E0,6.188268606E0
1.022943517E1,-1.281136352E0,-6.404427530E-1,-5.999015803E0,6.167630653E0
1.023937817E1,-1.003346830E0,-1.156907139E0,-6.685751985E0,6.858893395E0
1.024932217E1,-7.863079794E-1,-1.407024127E0,-7.838131186E0,8.002143315E0
1.025926617E1,-7.112108731E-1,-1.554167701E0,-9.203085328E0,9.360450721E0
1.026921017E1,-6.905223278E-1,-1.681775581E0,-1.037067781E1,1.052882465E1
1.027915417E1,-4.888714847E-1,-1.762437629E0,-1.107754304E1,1.122751715E1
1.028909817E1,-3.607855945E-1,-1.770824144E0,-1.158709748E1,1.172718262E1
1.029904217E1,-3.826115330E-1,-1.745028567E0,-1.171481236E1,1.185024662E1
1.030898617E1,-3.716763261E-1,-1.826546501E0,-1.132798396E1,1.148031515E1
1.031893017E1,-3.976481596E-1,-1.963256157E0,-1.070233189E1,1.088817738E1
1.032887417E1,-4.674547783E-1,-2.138372665E0,-9.924258102E0,1.016277770E1
1.033881817E1,-5.754174026E-1,-2.421807088E0,-9.211688921E0,9.542089265E0
1.034876217E1,-7.640175162E-1,-2.746412049E0,-8.675633147E0,9.131982939E0
1.035870517E1,-9.755914132E-1,-2.957727791E0,-8.244764104E0,8.813402716E0
1.036864917E1,-1.224082437E0,-3.074944292E0,-7.842905438E0,8.512627439E0
1.037859317E1,-1.524190196E0,-3.116774981E0,-7.474927878E0,8.240873061E0
1.038853717E1,-1.735151451E0,-3.067202871E0,-7.296771403E0,8.103169560E0
1.039848117E1,-1.786636038E0,-3.023269524E0,-7.164836583E0,7.979167263E0
1.040842517E1,-1.684077192E0,-3.042285254E0,-7.084301128E0,7.891700579E0
1.041836917E1,-1.585551315E0,-3.031535733E0,-6.997139023E0,7.788718533E0
1.042831317E1,-1.479989485E0,-3.062185375E0,-6.877009732E0,7.672066931E0
1.043825717E1,-1.204055650E0,-3.109350771E0,-6.654544811E0,7.443169947E0
1.044820117E1,-8.749378815E-1,-2.957269077E0,-6.404979215E0,7.108777351E0
1.045814517E1,-5.655649904E-1,-2.795471358E0,-6.191824231E0,6.817126313E0
1.046808917E1,1.273495612E-1,-2.803470056E0,-5.731944813E0,6.382072830E0
1.047803317E1,1.064602408E0,-2.787835479E0,-4.775714554E0,5.631416735E0
1.048797617E1,1.778523027E0,-2.907267197E0,-3.404795668E0,4.817466165E0
1.049792017E1,2.022403229E0,-2.855782756E0,-2.212416249E0,4.140096089E0
1.050786417E1,1.747326816E0,-1.903234489E0,-1.897533161E0,3.205633263E0
1.051780817E1,1.907568737E0,-3.701571098E-1,-1.606428945E0,2.521199859E0
1.052775217E1,1.860031166E0,1.202042820E0,-7.656168759E-2,2.215961320E0
1.053769617E1,1.530068402E0,2.133180630E0,5.683642133E0,6.260619523E0
1.054764017E1,1.365117133E0,1.224865379E0,1.583548322E1,1.594134150E1
1.055758417E1,5.392785401E-1,-1.229547830E0,2.623669052E1,2.627102089E1
1.056752817E1,-9.787622121E-1,-3.508853594E0,3.282807897E1,3.302957460E1
1.057747217E1,-2.522186531E0,-3.833551526E0,3.451244195E1,3.481617715E1
1.058741617E1,-3.566874053E0,-2.034538979E0,3.247318573E1,3.273178471E1
1.059736017E1,-3.095865338E0,-3.142406981E-1,2.998260866E1,3.014365524E1
1.060730317E1,-1.552257708E0,8.286961998E-1,2.958109907E1,2.963338765E1
1.061724717E1,-5.247675781E-1,1.211754095E0,2.983407067E1,2.986328016E1
1.062719117E1,9.840272826E-2,1.312090780E0,2.713026670E1,2.716215448E1
1.063713517E1,9.392234129E-1,1.814800322E0,2.065116350E1,2.075201664E1
1.064707917E1,2.555531156E0,2.874867775E0,1.363951227E1,1.417151718E1
1.065702317E1,4.233121008E0,4.442624990E0,8.063865286E0,1.013322030E1
1.066696750E1,4.995573370E0,5.691092656E0,4.493353094E0,8.805368303E0
1.067691150E1,4.457940602E0,6.099281518E0,2.531835022E0,7.967726026E0
1.068685550E1,2.904903460E0,5.663306687E0,1.843899575E0,6.626573201E0
1.069679950E1,8.420410808E-1,4.797273822E0,1.859723310E0,5.213582271E0
1.070674350E1,-1.180793307E0,3.754219428E0,1.498734927E0,4.211251919E0
1.071668650E1,-2.979019258E0,2.950671664E0,2.552701396E-1,4.200735870E0
1.072663050E1,-4.220353612E0,2.298200457E0,-1.258931842E0,4.967697589E0
1.073657450E1,-5.040479402E0,1.834906412E0,-2.654728292E0,5.985056094E0
1.074651850E1,-5.370636587E0,1.643617237E0,-3.657557352E0,6.702457814E0
1.075646250E1,-5.281410999E0,1.816172079E0,-4.633717845E0,7.256936284E0
1.076640650E1,-4.811721123E0,1.994566535E0,-6.048010207E0,7.981815789E0
1.077635050E1,-4.118913776E0,1.868074889E0,-7.193157572E0,8.496862382E0
1.078629450E1,-3.228168240E0,1.681236468E0,-7.400527321E0,8.247146832E0
1.079623850E1,-2.223365891E0,1.632828539E0,-7.175498981E0,7.687474914E0
1.080618250E1,-1.355772259E0,1.544347595E0,-6.968569527E0,7.265265939E0
1.081612650E1,-7.731465548E-1,1.340228021E0,-6.915648717E0,7.086618652E0
1.082606950E1,-3.655182213E-1,1.094373945E0,-7.078234642E0,7.171656959E0
1.083601350E1,-1.535001003E-2,8.334959599E-1,-7.403677216E0,7.450462231E0
1.084595750E1,2.302200465E-1,5.585744248E-1,-7.754134764E0,7.777635412E0
1.085590150E1,4.329128634E-1,2.688046166E-1,-8.089359730E0,8.105393903E0
1.086584550E1,5.237736245E-1,1.222777046E-2,-8.520773149E0,8.536864962E0
1.087578950E1,6.154146966E-1,-2.745929946E-1,-8.884740688E0,8.910261144E0
1.088573350E1,6.907399904E-1,-5.226551253E-1,-9.196425934E0,9.237128345E0
1.089567750E1,6.977343567E-1,-7.424323735E-1,-9.530165707E0,9.584471685E0
1.090562150E1,7.006154260E-1,-9.804733998E-1,-9.900390937E0,9.973461324E0
1.091556550E1,8.203234255E-1,-1.207266722E0,-1.006408257E1,1.016937468E1
1.092550850E1,8.636845496E-1,-1.358969955E0,-1.017384767E1,1.030048187E1
1.093545250E1,8.455441477E-1,-1.503060697E0,-1.032620974E1,1.046922843E1
1.094539650E1,8.141672576E-1,-1.679145211E0,-1.044390367E1,1.060931292E1
1.095534050E1,7.390481512E-1,-1.818293303E0,-1.047676034E1,1.065902856E1
1.096528450E1,6.124568094E-1,-1.971556280E0,-1.030937093E1,1.051405091E1
1.097522850E1,4.319741295E-1,-2.099270287E0,-1.005201743E1,1.027796632E1
1.098517250E1,3.348064154E-1,-2.262635207E0,-9.860942112E0,1.012273643E1
1.099511650E1,2.632893766E-1,-2.452835630E0,-9.815543160E0,1.012080093E1
1.100506050E1,2.971905828E-1,-2.708772352E0,-9.553603687E0,9.934642082E0
1.101500450E1,2.724334717E-1,-2.893484725E0,-9.333132082E0,9.775163851E0
1.102494850E1,1.330692162E-1,-3.040598625E0,-9.357966961E0,9.840451872E0
1.103489150E1,8.088223178E-2,-3.186685461E0,-9.280550995E0,9.812753585E0
1.104483550E1,4.381490450E-2,-3.236533559E0,-9.138581768E0,9.694882462E0
1.105477950E1,-9.192140948E-2,-3.163183747E0,-9.019572219E0,9.558601570E0
1.106472350E1,-7.691259362E-2,-3.109999227E0,-8.825618906E0,9.357860857E0
1.107466750E1,-4.150255912E-2,-3.008849705E0,-8.283394319E0,8.813031287E0
1.108461150E1,-1.712996643E-1,-2.760080208E0,-7.485234180E0,7.979731641E0
1.109455550E1,-1.713186312E-1,-2.476956857E0,-6.395731258E0,6.860761158E0
1.110449950E1,-4.804108925E-3,-2.264615805E0,-4.481832910E0,5.021487236E0
1.111444350E1,1.552497882E-2,-1.844398928E0,-1.738026381E0,2.534321236E0
1.112438750E1,-4.241838475E-1,-1.083204301E0,1.181000737E0,1.657717176E0
1.113433050E1,-1.107788261E0,1.540621457E-1,4.145643738E0,4.293866786E0
1.114427450E1,-1.513078293E0,1.995093077E0,6.387283786E0,6.860553656E0
1.115421850E1,-8.903981390E-1,3.136029862E0,8.320769722E0,8.936593361E0
1.116416250E1,1.017157588E0,3.340021090E0,1.251680009E1,1.299463870E1
1.117410650E1,3.687807045E0,3.080716079E0,1.928227652E1,1.987201349E1
1.118405050E1,6.267660279E0,1.938337663E0,2.655420369E1,2.735263153E1
1.119399450E1,8.040555360E0,7.440260321E-2,3.199438296E1,3.298934082E1
1.120393850E1,8.879870542E0,-1.789910479E0,3.434053848E1,3.551518638E1
1.121388250E1,7.011738351E0,-2.328691348E0,3.185253887E1,3.269818818E1
1.122382650E1,2.462343788E0,-7.556093663E-1,2.554618581E1,2.567570236E1
1.123376950E1,-1.709863266E-1,-1.468662697E-1,1.941371959E1,1.941502805E1
1.124371350E1,-1.689027590E0,1.095067717E0,1.558695317E1,1.571639579E1
1.125365750E1,-2.266488960E0,2.635412600E0,1.426704832E1,1.468438080E1
1.126360150E1,-2.217354515E0,3.515722903E0,1.359773625E1,1.421883961E1
1.127354550E1,-1.900369645E0,4.203791374E0,1.232521724E1,1.316032851E1
1.128348950E1,-9.709972559E-1,4.431689528E0,1.048921725E1,1.142831511E1
1.129343350E1,2.808991436E-1,4.498180556E0,8.251442794E0,9.402065774E0
1.130337750E1,1.642438146E0,4.559590353E0,6.425794133E0,8.048496598E0
1.131332150E1,2.681779851E0,4.656295114E0,4.944754050E0,7.302302375E0
1.132326450E1,3.178969182E0,4.499038050E0,3.330967553E0,6.437587536E0
1.133320850E1,2.905863281E0,4.158333950E0,1.578554099E0,5.312966750E0
1.134315250E1,2.166981483E0,3.549192658E0,1.127167761E-1,4.159961820E0
1.135309650E1,1.135550330E0,2.675556951E0,-9.267480129E-1,3.050728017E0
1.136304050E1,9.531780124E-2,1.941309657E0,-1.717821327E0,2.593969695E0
1.137298450E1,-6.906422688E-1,1.386897865E0,-2.605694126E0,3.031520132E0
1.138292850E1,-1.195599480E0,1.009673518E0,-3.629059777E0,3.952084715E0
1.139287250E1,-1.284386819E0,7.529950762E-1,-4.627413962E0,4.861029835E0
1.140281650E1,-1.147329838E0,6.147859016E-1,-5.424047978E0,5.578048398E0
1.141276050E1,-1.030648796E0,5.713266174E-1,-6.164915344E0,6.276530271E0
1.142270350E1,-9.933818592E-1,4.847984970E-1,-6.888522314E0,6.976645095E0
1.143264750E1,-8.925705989E-1,3.254433055E-1,-7.406951657E0,7.467632052E0
1.144259150E1,-7.870879979E-1,1.296636151E-1,-7.961801552E0,8.001662585E0
1.145253550E1,-6.019870044E-1,-1.402441518E-1,-8.348524700E0,8.371375123E0
1.146247950E1,-4.417652556E-1,-4.054152355E-1,-8.638378782E0,8.659163125E0
1.147242350E1,-3.577503414E-1,-5.959488040E-1,-8.950182141E0,8.977132094E0
1.148236750E1,-2.320667799E-1,-7.525120962E-1,-9.208692808E0,9.242302347E0
1.149231150E1,-1.109767909E-1,-9.144304146E-1,-9.348448278E0,9.393720458E0
1.150225550E1,-2.457409322E-2,-1.099396703E0,-9.451597255E0,9.515354312E0
1.151219850E1,5.284764670E-2,-1.326245135E0,-9.474894902E0,9.567410957E0
1.152214250E1,1.342108485E-1,-1.470322137E0,-9.463848926E0,9.578324292E0
1.153208650E1,2.481948625E-1,-1.585464338E0,-9.439838505E0,9.575272782E0
1.154203050E1,2.986746061E-1,-1.744964833E0,-9.560908613E0,9.723429554E0
1.155197450E1,2.871843888E-1,-1.907429866E0,-9.752846975E0,9.941769847E0
1.156191850E1,2.463298930E-1,-1.996985528E0,-9.988875682E0,1.018951751E1
1.157186250E1,1.452574083E-1,-2.094351609E0,-1.025916206E1,1.047176272E1
1.158180650E1,1.498889878E-2,-2.248521051E0,-1.041684041E1,1.065676479E1
1.159175050E1,-9.466934502E-2,-2.428867601E0,-1.044772774E1,1.072675977E1
1.160169350E1,-2.999690334E-1,-2.611324410E0,-1.045686110E1,1.078215844E1
1.161163750E1,-4.745312248E-1,-2.792984829E0,-1.032442283E1,1.070605674E1
1.162158150E1,-6.245614229E-1,-2.987035498E0,-1.006498421E1,1.051743149E1
1.163152550E1,-7.360893139E-1,-3.105240763E0,-9.835514910E0,1.034029503E1
1.164146950E1,-7.878289863E-1,-3.244339592E0,-9.558329991E0,1.012462770E1
1.165141350E1,-9.277630895E-1,-3.323104802E0,-9.291919736E0,9.911788046E0
1.166135750E1,-1.081530389E0,-3.374733378E0,-9.035166743E0,9.705296050E0
1.167130188E1,-1.122566880E0,-3.413476152E0,-8.608498340E0,9.328355670E0
1.168124588E1,-1.159639396E0,-3.384690601E0,-8.143058220E0,8.894396617E0
1.169118888E1,-1.215782168E0,-3.274996251E0,-7.781895590E0,8.530042538E0
1.170113288E1,-1.104010887E0,-3.176570947E0,-7.230762185E0,7.974544802E0
1.171107688E1,-9.756456462E-1,-2.853576017E0,-6.488193280E0,7.154818834E0
1.172102088E1,-6.868380703E-1,-2.386400735E0,-5.538869752E0,6.070068627E0
1.173096488E1,-4.623884583E-1,-1.946539260E0,-4.106280282E0,4.567751737E0
1.174090888E1,-3.349307053E-1,-1.681743422E0,-2.231351872E0,2.814137646E0
1.175085288E1,-6.186693299E-1,-1.412829097E0,-4.187658906E-2,1.542916538E0
1.176079688E1,-1.304524045E0,-5.193616810E-1,1.868040975E0,2.336898933E0
1.177073988E1,-1.735776957E0,6.462392440E-1,3.772645174E0,4.202784602E0
1.178068387E1,-1.543761557E0,2.002830405E0,6.952865075E0,7.398436466E0
1.179062788E1,-1.355995330E0,3.759643890E0,1.164103453E1,1.230801895E1
1.180057188E1,-5.914174312E-1,4.346718667E0,1.705672333E1,1.761180140E1
1.181051587E1,6.325329320E-1,3.505970625E0,2.172204830E1,2.201225364E1
1.182045988E1,1.643385102E0,2.638821527E0,2.484277278E1,2.503652239E1
1.183040388E1,2.656772771E0,1.944486303E0,2.604340028E1,2.625067936E1
1.184034787E1,3.022034592E0,1.154594419E0,2.638854037E1,2.658610247E1
1.185029088E1,2.219564616E0,1.041142940E0,2.710627206E1,2.721691442E1
1.186023487E1,1.352944838E0,7.409734932E-1,2.793036694E1,2.797293154E1
1.187017888E1,3.946526311E-1,3.623247644E-1,2.780625862E1,2.781141939E1
1.188012288E1,-7.884063258E-1,5.226348062E-1,2.595390046E1,2.597113168E1
1.189006687E1,-1.404357943E0,6.433052574E-1,2.233326477E1,2.238662052E1
1.190001088E1,-1.013490872E0,7.686831558E-1,1.818907640E1,1.823350043E1
1.190995488E1,1.897373240E-1,1.517507121E0,1.410419284E1,1.418686307E1
1.191989887E1,1.924076304E0,2.585779679E0,1.037168938E1,1.086095147E1
1.192984188E1,3.535183022E0,3.636916973E0,7.192267041E0,8.800760720E0
1.193978588E1,4.668035446E0,4.614909691E0,4.648052294E0,8.043154637E0
1.194972988E1,5.133438436E0,5.324469895E0,2.681120870E0,7.867056563E0
1.195967388E1,4.989233819E0,5.425141992E0,1.154052674E0,7.460325550E0
1.196961788E1,4.542480231E0,5.012616250E0,2.979694319E-1,6.771206251E0
1.197956188E1,3.644870063E0,4.444207539E0,-1.669315749E-1,5.750123875E0
1.198950588E1,2.566628002E0,3.705084982E0,-5.347033131E-1,4.538848054E0
1.199944988E1,1.559973694E0,2.855661719E0,-1.260080820E0,3.489430534E0
1.200939388E1,7.167905056E-1,2.009234568E0,-2.210282015E0,3.071833128E0
1.201933688E1,-4.488373898E-2,1.292953867E0,-2.953356705E0,3.224292183E0
1.202928088E1,-6.502768195E-1,8.100529374E-1,-3.488804369E0,3.640165055E0
1.203922488E1,-9.685979240E-1,4.629904291E-1,-3.848144422E0,3.995091685E0
1.204916888E1,-1.229102418E0,3.049067147E-1,-4.076696295E0,4.268853890E0
1.205911288E1,-1.359554238E0,2.763761030E-1,-4.376821010E0,4.591441346E0
1.206905688E1,-1.399164885E0,2.804426953E-1,-4.820105445E0,5.026900336E0
1.207900088E1,-1.341913334E0,2.492744046E-1,-5.317092463E0,5.489475511E0
1.208894488E1,-1.127519033E0,1.287016019E-1,-5.919712356E0,6.027508411E0
1.209888788E1,-9.349463209E-1,-1.229919420E-1,-6.603399800E0,6.670392834E0
1.210883187E1,-8.490810554E-1,-3.576072308E-1,-7.314542261E0,7.372336811E0
1.211877588E1,-6.854031636E-1,-5.590069726E-1,-7.889929331E0,7.939348282E0
1.212871988E1,-4.849905049E-1,-7.757555093E-1,-8.396556069E0,8.446251607E0
1.213866387E1,-2.275500251E-1,-1.042336210E0,-8.738463818E0,8.803351276E0
1.214860788E1,7.913387775E-2,-1.300348402E0,-8.937379662E0,9.031828351E0
1.215855188E1,2.951857187E-1,-1.468998912E0,-9.222212740E0,9.343141882E0
1.216849488E1,3.575344330E-1,-1.629826432E0,-9.580258219E0,9.724480069E0
1.217843888E1,3.777536662E-1,-1.845656225E0,-9.857638435E0,1.003604405E1
1.218838287E1,3.155561755E-1,-2.028481556E0,-1.018562513E1,1.039044140E1
1.219832688E1,1.667902185E-1,-2.159209802E0,-1.051831065E1,1.073894152E1
1.220827088E1,7.871083170E-2,-2.313574249E0,-1.068109480E1,1.092907166E1
1.221821487E1,-2.246416200E-2,-2.456121765E0,-1.078240132E1,1.105862636E1
1.222815888E1,-1.144193392E-1,-2.607827775E0,-1.077275575E1,1.108449927E1
1.223810288E1,-1.971764441E-1,-2.759908007E0,-1.059126753E1,1.094673096E1
1.224804588E1,-2.788920503E-1,-2.874411400E0,-1.036203797E1,1.075694439E1
1.225798988E1,-3.293317039E-1,-2.960663094E0,-1.020399124E1,1.062993050E1
1.226793388E1,-3.570104128E-1,-3.054800342E0,-1.021072840E1,1.066387528E1
1.227787788E1,-4.390310244E-1,-3.117029335E0,-1.034167446E1,1.081012723E1
1.228782188E1,-3.639086655E-1,-3.167629969E0,-1.005584150E1,1.054923019E1
1.229776588E1,-2.763853124E-1,-3.206096755E0,-9.712530423E0,1.023174924E1
1.230770988E1,-2.828622732E-1,-3.215347050E0,-9.448994075E0,9.985086717E0
1.231765388E1,-3.206130669E-1,-3.149215041E0,-9.053326440E0,9.590780351E0
1.232759688E1,-2.617355521E-1,-2.911235703E0,-8.652013319E0,9.132422093E0
1.233754088E1,-5.449663460E-2,-2.524898470E0,-8.238024604E0,8.616445412E0
1.234748488E1,2.213026406E-1,-1.950192016E0,-7.187234927E0,7.450407349E0
1.235742888E1,6.500864196E-1,-1.274814634E0,-4.707500351E0,4.920195551E0
1.236737288E1,1.000254823E0,-2.798875022E-1,-1.911333175E0,2.175325545E0
1.237731688E1,5.091033259E-1,5.633765969E-1,5.293612969E-1,9.256364130E-1
1.238726088E1,-5.419319335E-1,1.216081107E0,2.752465087E0,3.057549269E0
1.239720388E1,-1.998670550E0,2.431713733E0,4.998053759E0,5.906645158E0
1.240714787E1,-2.963278846E0,3.651972091E0,7.630459136E0,8.963360324E0
1.241709188E1,-2.055673155E0,3.853676473E0,1.146464275E1,1.226844113E1
1.242703588E1,1.006725352E-1,3.733158342E0,1.697280643E1,1.737880215E1
1.243697987E1,1.623270534E0,3.856595111E0,2.144343081E1,2.184786164E1
1.244692388E1,2.455588499E0,2.603351147E0,2.303126795E1,2.330765229E1
1.245686788E1,2.590988964E0,1.092394955E0,2.220478741E1,2.238211640E1
1.246681088E1,2.315775433E0,2.606527939E-1,1.991022538E1,2.004614253E1
1.247675488E1,1.781448096E0,5.398500323E-2,1.693841077E1,1.703191801E1
1.248669888E1,9.518942562E-1,5.158817106E-1,1.398869162E1,1.403052849E1
1.249664288E1,-4.910782238E-2,1.194329173E0,1.141695987E1,1.147936438E1
1.250658688E1,-7.460256337E-1,1.523655760E0,8.753278908E0,8.916163568E0
1.251653088E1,-1.163072589E0,1.661157129E0,6.426726764E0,6.739065050E0
1.252647488E1,-1.396638595E0,1.885100519E0,4.651234934E0,5.209432766E0
1.253641888E1,-1.353504124E0,1.804824680E0,3.372257667E0,4.057275848E0
1.254636188E1,-1.111992629E0,1.418735662E0,2.520733498E0,3.098941086E0
1.255630588E1,-9.631986782E-1,8.688032752E-1,2.017446690E0,2.398470757E0
1.256624988E1,-1.029519552E0,2.985974228E-1,1.652541842E0,1.969762795E0
1.257619388E1,-1.187830431E0,1.063830721E-1,1.324297282E0,1.782139664E0
1.258613788E1,-1.047960940E0,-3.414978594E-2,4.507010436E-1,1.141279882E0
1.259608188E1,-6.292320326E-1,-8.184113860E-2,-6.517593080E-1,9.096269116E-1
1.260602588E1,-2.052249902E-1,7.585534394E-2,-1.680981529E0,1.695160828E0
1.261596888E1,9.842968941E-2,2.731140876E-1,-2.698941429E0,2.714510001E0
1.262591288E1,2.761059617E-1,4.277475062E-1,-3.629567315E0,3.665100452E0
1.263585688E1,2.284764433E-1,5.371149972E-1,-4.547920480E0,4.585223517E0
1.264580088E1,3.174641950E-1,4.371776032E-1,-5.076970705E0,5.105637993E0
1.265574488E1,3.531134994E-1,3.353968745E-1,-5.036538963E0,5.060030132E0
1.266568825E1,3.546495264E-2,1.533449847E-1,-4.776725537E0,4.779317870E0
1.267563225E1,-5.204576685E-1,-2.846939135E-1,-4.777788561E0,4.814477162E0
1.268557525E1,-9.731202337E-1,-2.817916480E-1,-4.838145275E0,4.943077910E0
1.269551925E1,-1.517560915E0,-1.614702755E-1,-4.753595122E0,4.992567512E0
1.270546325E1,-1.787601121E0,-3.429625869E-1,-4.674037905E0,5.015951699E0
1.271540725E1,-1.618935847E0,-5.056780270E-1,-4.502268344E0,4.811141630E0
1.272535125E1,-1.257498398E0,-7.400835469E-1,-4.484816744E0,4.716206856E0
1.273529525E1,-1.233779460E0,-6.266266595E-1,-3.803447136E0,4.047355043E0
1.274523925E1,-1.450020019E0,-2.193784681E-1,-2.905411291E0,3.254550620E0
1.275518225E1,-1.194266023E0,-3.009091195E-1,-2.444097551E0,2.736865081E0
1.276512625E1,-8.177333283E-1,-3.426567775E-1,-2.194907931E0,2.367218260E0
1.277507025E1,-7.640812509E-1,-2.472916138E-1,-1.874732528E0,2.039508606E0
1.278501425E1,-5.741401514E-1,-1.755535868E-1,-1.448382214E0,1.567886161E0
1.279495825E1,-3.085249718E-1,9.397060275E-3,-9.827345181E-1,1.030069462E0
1.280490225E1,-2.843039407E-1,1.575064480E-1,-6.245142066E-1,7.040277027E-1
1.281484625E1,-2.278938413E-1,1.645277846E-1,-6.046155471E-1,6.667570431E-1
1.282478925E1,-8.157012016E-2,2.499281234E-1,-8.889662290E-1,9.270268106E-1
1.283473325E1,1.352731414E-2,4.824753982E-1,-1.049621987E0,1.155279972E0
1.284467725E1,1.761264677E-1,6.281900588E-1,-1.040798539E0,1.228374894E0
1.285462125E1,3.546554833E-1,8.028133535E-1,-6.244346845E-1,1.077129736E0
1.286456525E1,4.246232658E-1,1.015937347E0,4.067627263E-1,1.173835392E0
1.287450925E1,2.632819945E-1,1.154543256E0,1.641698765E0,2.024218954E0
1.288445325E1,5.365233321E-2,1.029115802E0,2.840028310E0,3.021211464E0
1.289439625E1,-1.735986433E-1,7.249664479E-1,3.758956842E0,3.832162494E0
1.290434025E1,-3.331844343E-1,3.519977045E-1,4.181424020E0,4.209420517E0
1.291428425E1,-2.906904889E-1,-5.162243575E-2,4.183767584E0,4.194171793E0
1.292422825E1,-1.993715619E-1,-3.515021530E-1,3.617056028E0,3.639560013E0
1.293417225E1,-2.202863945E-1,-4.914435652E-1,2.601708080E0,2.656864280E0
1.294411625E1,-2.356073420E-1,-4.416059920E-1,1.444741738E0,1.528988346E0
1.295405925E1,-1.539583576E-1,-2.734403622E-1,1.155924368E-1,3.344165352E-1
1.296400325E1,-5.499752171E-2,-5.422356963E-2,-1.363435035E0,1.365620744E0
1.297394725E1,-1.815275408E-2,1.269263873E-1,-2.548404862E0,2.551628337E0
1.298389125E1,-1.151577694E-1,2.033211368E-1,-3.433563969E0,3.441505822E0
1.299383525E1,-2.832399302E-1,2.099048093E-1,-4.125870793E0,4.140905057E0
1.300377925E1,-4.762779343E-1,1.721899760E-1,-4.620139441E0,4.647814380E0
1.301372325E1,-5.618892845E-1,4.286213726E-2,-4.741658031E0,4.775026451E0
1.302366625E1,-6.634598058E-1,-4.414881706E-2,-4.501698825E0,4.550540665E0
1.303361025E1,-7.785479933E-1,-1.880986418E-1,-4.254131223E0,4.328874050E0
1.304355425E1,-7.579048370E-1,-3.677099039E-1,-4.130542719E0,4.215567989E0
1.305349825E1,-7.419121905E-1,-4.667744547E-1,-4.108360721E0,4.200826098E0
1.306344225E1,-7.619196083E-1,-4.128330132E-1,-4.210892817E0,4.299136065E0
1.307338625E1,-7.249710526E-1,-3.600151142E-1,-4.297888277E0,4.373446873E0
1.308333025E1,-6.613434792E-1,-2.688884510E-1,-4.316646144E0,4.375284006E0
1.309327325E1,-5.182619660E-1,-1.229488188E-1,-4.397643530E0,4.429783346E0
1.310321725E1,-3.510671201E-1,6.255351305E-3,-4.335350218E0,4.349545811E0
1.311316125E1,-1.345189968E-1,2.077691138E-1,-3.989915428E0,3.997585332E0
1.312310525E1,7.030553229E-2,4.587620151E-1,-3.400772783E0,3.432296750E0
1.313304925E1,2.582537545E-1,7.233841914E-1,-2.560594552E0,2.673317069E0
1.314299325E1,2.954291821E-1,9.746937194E-1,-1.355204494E0,1.695253807E0
1.315293625E1,1.522438809E-1,1.207313500E0,3.391490328E-1,1.263252213E0
1.316288025E1,-3.118695791E-1,1.561582848E0,3.070800955E0,3.459136038E0
1.317282425E1,-1.132417245E0,2.167535068E0,6.575139037E0,7.015199958E0
1.318276825E1,-1.805997777E0,2.747393212E0,1.087552174E1,1.136163591E1
1.319271225E1,-2.108059383E0,3.506939216E0,1.630707052E1,1.681258713E1
1.320265625E1,-1.633612066E0,3.885259039E0,2.202169939E1,2.242139983E1
1.321260025E1,-8.414236879E-1,2.701924093E0,2.706467965E1,2.721222652E1
1.322254325E1,-2.741570847E-1,8.041789708E-1,3.032956372E1,3.034146176E1
1.323248725E1,-2.273128474E-1,-6.492602080E-1,3.049322495E1,3.050098323E1
1.324243125E1,-7.801501304E-2,-7.864399803E-1,2.755943829E1,2.757076736E1
1.325237525E1,4.233139280E-1,-1.158964920E-1,2.289313567E1,2.289734236E1
1.326231925E1,8.269945139E-1,7.809222552E-1,1.755454708E1,1.759135819E1
1.327226325E1,1.188592469E0,1.670560622E0,1.252946749E1,1.269610494E1
1.328220625E1,1.136307252E0,2.179484146E0,8.150844957E0,8.513378814E0
1.329215025E1,5.111847885E-1,2.073590778E0,4.899407138E0,5.344649559E0
1.330209425E1,-2.090720196E-1,1.312208748E0,3.115858430E0,3.387355408E0
1.331203825E1,-4.914282893E-1,4.851946458E-1,2.089354579E0,2.200526792E0
1.332198225E1,-1.935782138E-1,-1.688313353E-1,1.218821697E0,1.245593382E0
1.333192625E1,3.608877015E-1,-4.637754178E-1,-3.118390274E-1,6.652602125E-1
1.334186925E1,7.937102620E-1,-5.572712266E-1,-2.661635608E0,2.832813321E0
1.335181325E1,1.018515823E0,-4.874560565E-1,-5.406274781E0,5.522933541E0
1.336175725E1,9.200016417E-1,-2.401170802E-1,-8.078923035E0,8.134682332E0
1.337170125E1,8.413500130E-1,-2.925566643E-1,-1.066456121E1,1.070169730E1
1.338164525E1,5.852377282E-1,-3.945081317E-1,-1.247291322E1,1.249286613E1
1.339158925E1,1.037348536E0,-6.000892174E-1,-1.354188950E1,1.359481409E1
1.340153325E1,1.682958473E0,-1.019343643E0,-1.375849609E1,1.389847565E1
1.341147625E1,1.131080133E0,-1.444540009E0,-1.334766136E1,1.347316229E1
1.342142025E1,4.034809765E-1,-1.893315857E0,-1.229088706E1,1.244240116E1
1.343136425E1,-1.827178878E-1,-2.151605206E0,-1.107367686E1,1.128224756E1
1.344130825E1,-5.955586486E-1,-2.268484030E0,-1.031008897E1,1.057348781E1
1.345125225E1,-9.345898600E-1,-2.436618962E0,-1.032939413E1,1.065396421E1
1.346119625E1,-1.117874051E0,-2.475584223E0,-1.056610930E1,1.090966661E1
1.347113925E1,-1.040117192E0,-2.551458278E0,-1.102605479E1,1.136510745E1
1.348108325E1,-7.103609803E-1,-2.546529660E0,-1.112611469E1,1.143590198E1
1.349102725E1,-7.381478262E-1,-2.403836548E0,-1.102509702E1,1.130822960E1
1.350097125E1,-4.455549091E-1,-2.277774087E0,-1.075676479E1,1.100430655E1
1.351091525E1,3.264841099E-1,-2.332923855E0,-1.022178899E1,1.048971381E1
1.352085925E1,9.340691654E-1,-2.327411685E0,-9.639696921E0,9.960576644E0
1.353080225E1,1.294256042E0,-2.353166331E0,-9.355596499E0,9.733430862E0
1.354074625E1,1.378318830E0,-2.569226797E0,-8.772854217E0,9.244655766E0
1.355069025E1,1.127090286E0,-2.681424048E0,-7.843306557E0,8.365274962E0
1.356063425E1,1.029794956E0,-2.601277725E0,-7.516969358E0,8.020720154E0
1.357057825E1,1.246295717E0,-2.700313770E0,-7.750210113E0,8.301247151E0
1.358052225E1,1.931073959E0,-3.516893516E0,-7.968564441E0,8.921636951E0
1.359046525E1,1.863154457E0,-3.633622067E0,-7.889543415E0,8.883661922E0
1.360040925E1,9.190474492E-1,-2.207718596E0,-7.386124460E0,7.763601235E0
1.361035325E1,3.559931070E-1,-1.817862801E0,-7.088705251E0,7.326738591E0
1.362029725E1,7.288393512E-2,-2.082889313E0,-7.079304097E0,7.379721299E0
1.363024125E1,-1.097757728E-1,-2.292353534E0,-6.951122605E0,7.320180388E0
1.364018525E1,-1.766638999E-1,-2.372778477E0,-6.602119845E0,7.017782718E0
1.365012825E1,8.674052060E-3,-2.529370713E0,-6.067733451E0,6.573825421E0
1.366007225E1,1.869934449E-1,-2.731124796E0,-5.667647660E0,6.294143246E0
1.367001600E1,1.948802425E-1,-2.831406591E0,-5.457039138E0,6.150944460E0
1.367996000E1,1.262132462E-1,-2.745524734E0,-5.357386211E0,6.021247617E0
1.368990400E1,1.931099614E-1,-2.606270954E0,-5.497905328E0,6.087438110E0
1.369984800E1,2.700011761E-1,-2.429207909E0,-5.426576899E0,5.951612264E0
1.370979100E1,1.718275948E-1,-1.809579928E0,-4.579365637E0,4.926935546E0
1.371973500E1,-4.143973261E-1,-9.191106722E-1,-3.102592267E0,3.262294951E0
1.372967900E1,-1.612939820E0,3.273142684E-1,-7.833421254E-1,1.822727181E0
1.373962300E1,-2.766423852E0,2.041869925E0,1.655629756E0,3.816208015E0
1.374956700E1,-3.340091549E0,3.710728715E0,5.166050112E0,7.184274000E0
1.375951100E1,-2.565813192E0,5.233863780E0,1.080957684E1,1.228102923E1
1.376945400E1,-3.585245859E-1,6.069587603E0,1.787321683E1,1.887909726E1
1.377939800E1,2.078411661E0,5.931254175E0,2.391153352E1,2.472369322E1
1.378934200E1,3.338617758E0,5.528726002E0,2.794637428E1,2.868297431E1
1.379928600E1,3.651284459E0,5.088857510E0,3.064621384E1,3.127968625E1
1.380923000E1,3.812620541E0,4.009874314E0,3.331719622E1,3.377352116E1
1.381917400E1,3.285607778E0,2.940334956E0,3.477771375E1,3.505610021E1
1.382911700E1,1.897824206E0,2.376492336E0,3.332452863E1,3.346301930E1
1.383906100E1,6.785649911E-1,2.133988715E0,2.905895674E1,2.914510809E1
1.384900500E1,4.099971136E-1,2.062294542E0,2.326967530E1,2.336448042E1
1.385894900E1,8.169418345E-1,2.071425554E0,1.753216745E1,1.767300465E1
1.386889300E1,1.419754393E0,2.214765660E0,1.258759934E1,1.285957024E1
1.387883700E1,2.049936744E0,2.115755635E0,8.863218257E0,9.339983963E0
1.388878000E1,2.127165599E0,1.722992020E0,6.134730263E0,6.717771236E0
1.389872400E1,1.392461490E0,1.247072812E0,3.947882718E0,4.368056497E0
1.390866800E1,2.870553846E-1,7.726165777E-1,1.956792938E0,2.123293614E0
1.391861200E1,-3.814872596E-1,3.342987674E-1,3.050387156E-1,5.918925689E-1
1.392855600E1,-9.574035759E-1,2.820521414E-2,-1.482199001E0,1.764746730E0
1.393849900E1,-1.437592055E0,1.357138753E-3,-3.266055858E0,3.568444146E0
1.394844300E1,-1.728715567E0,1.466718498E-1,-5.033817669E0,5.324405175E0
1.395838700E1,-1.911419421E0,3.104852508E-1,-6.758559760E0,7.030508896E0
1.396833100E1,-1.889454209E0,3.414225765E-1,-8.105963484E0,8.330261136E0
1.397827500E1,-1.918373953E0,2.762671986E-1,-8.749550723E0,8.961647173E0
1.398821900E1,-2.234342138E0,3.196234256E-1,-8.867533502E0,9.150278375E0
1.399816200E1,-2.208073814E0,3.906825909E-1,-8.860333825E0,9.139679335E0
1.400810600E1,-1.708397369E0,3.147570804E-1,-8.956439831E0,9.123349606E0
1.401805000E1,-1.219885013E0,2.737616667E-1,-9.230126361E0,9.314413430E0
1.402799400E1,-8.168083718E-1,1.975674766E-1,-9.772932161E0,9.808996475E0
1.403793800E1,-4.094419571E-1,1.214666958E-1,-1.033055188E1,1.033937614E1
1.404788200E1,5.225408122E-2,1.435772109E-1,-1.083789724E1,1.083897419E1
1.405782500E1,4.160261046E-1,5.470464930E-2,-1.134378080E1,1.135153880E1
1.406776900E1,5.771952851E-1,-4.672831625E-2,-1.184944567E1,1.186358717E1
1.407771300E1,6.093368813E-1,-1.198987649E-1,-1.204411819E1,1.206011816E1
1.408765700E1,4.920664398E-1,-2.678246963E-1,-1.193874435E1,1.195188169E1
1.409760100E1,1.749660878E-1,-4.936827564E-1,-1.161343567E1,1.162524081E1
1.410754400E1,3.115147993E-2,-7.641957101E-1,-1.126486678E1,1.129080108E1
1.411748800E1,1.098340988E-2,-1.097982261E0,-1.083442517E1,1.088992444E1
1.412743200E1,1.300369598E-2,-1.414869190E0,-1.051986601E1,1.061459396E1
1.413737600E1,2.806919329E-2,-1.659352971E0,-1.032026780E1,1.045285452E1
1.414732000E1,1.775849095E-1,-1.853464743E0,-1.026900175E1,1.043643928E1
1.415726400E1,4.412523817E-1,-2.063894925E0,-1.036904995E1,1.058166163E1
1.416720700E1,5.293725528E-1,-2.139147128E0,-1.051071395E1,1.073924083E1
1.417715100E1,4.105704331E-1,-2.188865711E0,-1.073661762E1,1.096515659E1
1.418709500E1,2.716011936E-1,-2.334088621E0,-1.099820334E1,1.124643115E1
1.419703900E1,1.296496549E-1,-2.472470873E0,-1.093224441E1,1.120909849E1
1.420698300E1,-6.892441995E-2,-2.565081121E0,-1.046938349E1,1.077925705E1
1.421692700E1,-2.279731442E-1,-2.575799652E0,-9.671658971E0,1.001137867E1
1.422687000E1,-3.697051931E-1,-2.523606820E0,-8.996710190E0,9.351260212E0
1.423681400E1,-5.833403798E-1,-2.439943689E0,-8.164478325E0,8.541212884E0
1.424675800E1,-6.736486521E-1,-2.162937110E0,-7.055593053E0,7.410363876E0
1.425670200E1,-6.244184585E-1,-1.648730773E0,-5.954241918E0,6.209767177E0
1.426664600E1,-7.750583019E-1,-9.449258369E-1,-4.591109769E0,4.750988226E0
1.427658900E1,-1.326557815E0,-1.232544820E-1,-1.898803176E0,2.319569099E0
1.428653300E1,-2.285819124E0,1.070693598E0,2.228941065E0,3.367422178E0
1.429647700E1,-3.933545930E0,2.602671993E0,6.258746198E0,7.837001280E0
1.430642100E1,-5.531461914E0,4.740656403E0,1.010107673E1,1.245402125E1
1.431636500E1,-5.851155506E0,7.041395429E0,1.499546404E1,1.756932588E1
1.432630800E1,-4.130501204E0,8.308752524E0,2.156135746E1,2.347314517E1
1.433625200E1,-8.644878839E-1,8.581953151E0,2.854555016E1,2.982022289E1
1.434619600E1,2.847650741E0,6.790987834E0,3.436176388E1,3.514196134E1
1.435614000E1,5.162172239E0,4.823940049E0,3.839340971E1,3.903808819E1
1.436608400E1,7.339227451E0,2.757809442E0,4.047638206E1,4.122871908E1
1.437602800E1,9.252961493E0,4.113780798E-1,3.993556139E1,4.099555575E1
1.438597100E1,9.571279235E0,-1.374030190E0,3.585913055E1,3.713993254E1
1.439591500E1,7.119873249E0,-8.579721853E-1,2.811796901E1,2.901807872E1
1.440585900E1,4.016343089E0,2.178289559E-1,1.831551075E1,1.875197043E1
1.441580300E1,1.284309489E0,1.572946034E0,9.245588738E0,9.465966470E0
1.442574700E1,-1.184879926E0,2.574192545E0,3.333832689E0,4.375482613E0
1.443569000E1,-2.870856586E0,2.807654616E0,6.926985884E-1,4.074870957E0
1.444563400E1,-3.505368946E0,2.545016985E0,-6.148347259E-3,4.331831103E0
1.445557800E1,-2.763260801E0,2.326829302E0,-7.940600717E-1,3.698685747E0
1.446552200E1,-9.216055329E-1,2.354407403E0,-2.168770877E0,3.331089625E0
1.447546600E1,1.250420343E0,2.371248845E0,-3.975818961E0,4.795154693E0
1.448541000E1,3.066460567E0,2.195324253E0,-5.943379546E0,7.038919620E0
1.449535300E1,3.604976265E0,1.995794158E0,-7.941485401E0,8.946856351E0
1.450529700E1,3.066040152E0,1.484139692E0,-9.440212727E0,1.003597973E1
1.451524100E1,1.997526981E0,5.932573307E-1,-9.778812121E0,9.998361606E0
1.452518500E1,7.080053564E-1,-4.912359890E-1,-8.751797808E0,8.794120153E0
1.453512900E1,-7.511567847E-1,-1.489615610E0,-7.806020032E0,7.982301668E0
1.454507200E1,-1.806990488E0,-2.395196994E0,-7.408381886E0,7.992890931E0
1.455501600E1,-2.365840463E0,-3.005745419E0,-7.498236049E0,8.417556086E0
1.456496000E1,-2.645432096E0,-3.261812826E0,-7.990378064E0,9.026841945E0
1.457490400E1,-2.597965277E0,-3.160956835E0,-8.681952233E0,9.597779236E0
1.458484800E1,-2.203279390E0,-2.951935832E0,-9.457783025E0,1.014977955E1
1.459479100E1,-1.508126140E0,-2.792338712E0,-1.009829814E1,1.058523619E1
1.460473500E1,-7.468909485E-1,-2.639203058E0,-1.047083828E1,1.082412551E1
1.461467900E1,-1.318766400E-1,-2.544001908E0,-1.086909915E1,1.116363084E1
1.462462300E1,2.050423378E-1,-2.511846315E0,-1.098880920E1,1.127410049E1
1.463456700E1,2.695931867E-2,-2.506742865E0,-1.079587213E1,1.108311065E1
1.464451000E1,-2.574598487E-1,-2.561314344E0,-1.045456314E1,1.076682438E1
1.465445400E1,-5.962646998E-1,-2.628745605E0,-1.005567895E1,1.041069230E1
1.466439800E1,-7.305791172E-1,-2.732113853E0,-9.766417778E0,1.016765008E1
1.467434163E1,-8.378403680E-1,-2.788491244E0,-9.720021876E0,1.014674752E1
1.468428563E1,-9.700172625E-1,-2.770724772E0,-9.751651220E0,1.018393592E1
1.469422863E1,-9.635994317E-1,-2.753549453E0,-9.783461827E0,1.020914706E1
1.470417263E1,-7.821609148E-1,-2.726581802E0,-9.900461104E0,1.029879382E1
1.471411663E1,-5.192745575E-1,-2.681888901E0,-9.986164913E0,1.035305094E1
1.472406063E1,-3.123701008E-1,-2.559477442E0,-9.910749865E0,1.024067687E1
1.473400463E1,-2.671638878E-1,-2.552544690E0,-9.727498126E0,1.006037180E1
1.474394863E1,-4.578008059E-1,-2.644473445E0,-9.340095531E0,9.718035085E0
1.475389163E1,-7.200672852E-1,-2.795093043E0,-8.939789885E0,9.394194228E0
1.476383563E1,-9.199782528E-1,-3.075291617E0,-8.423595348E0,9.014473756E0
1.477377963E1,-1.119545258E0,-3.270279887E0,-7.721321359E0,8.459723143E0
1.478372363E1,-1.187505545E0,-3.334684921E0,-6.983958814E0,7.829813130E0
1.479366763E1,-1.138172587E0,-3.545998909E0,-6.664755803E0,7.634691547E0
1.480361063E1,-1.386709584E0,-3.678378409E0,-6.762463946E0,7.822042561E0
1.481355462E1,-2.015138502E0,-3.757885340E0,-6.755878812E0,7.989016456E0
1.482349863E1,-2.798527990E0,-4.037368799E0,-6.309977163E0,7.996744183E0
1.483344263E1,-3.949195711E0,-4.534814531E0,-4.812523361E0,7.702017313E0
1.484338662E1,-5.468059385E0,-5.179688158E0,-2.189615031E0,7.843676233E0
1.485332963E1,-7.045830542E0,-5.750332552E0,6.732326227E-1,9.119391133E0
1.486327363E1,-7.921646383E0,-5.891515912E0,2.313819832E0,1.013983251E1
1.487321763E1,-7.888411978E0,-5.187026998E0,1.961526259E0,9.642607422E0
1.488316163E1,-7.460575302E0,-3.728679667E0,1.231362805E0,8.430865333E0
1.489310563E1,-7.145306298E0,-1.416702585E0,2.182793670E0,7.604409018E0
1.490304863E1,-6.531709428E0,6.277383614E-1,6.362451831E0,9.139916673E0
1.491299263E1,-5.278143575E0,1.439090112E0,1.382752130E1,1.487044469E1
1.492293663E1,-3.297268588E0,1.098760818E0,2.148994424E1,2.176917451E1
1.493288063E1,-9.736498453E-1,1.074884298E0,2.658323160E1,2.662276418E1
1.494282463E1,1.288768868E0,2.475874537E0,2.931833689E1,2.945090420E1
1.495276763E1,4.395999877E0,4.050702790E0,3.145602982E1,3.201897594E1
1.496271163E1,7.544348946E0,5.009475710E0,3.279048839E1,3.401805663E1
1.497265563E1,9.145972649E0,5.503960120E0,3.278104397E1,3.447519741E1
1.498259963E1,9.091514021E0,5.727113843E0,2.987346453E1,3.174711551E1
1.499254363E1,8.566834005E0,6.150191470E0,2.411669595E1,2.632167402E1
1.500248663E1,8.467740072E0,7.097645059E0,1.760361809E1,2.078380516E1
1.501243063E1,8.843144765E0,8.046951045E0,1.175368933E1,1.676615171E1
1.502237462E1,8.994843174E0,8.559101647E0,7.920605578E0,1.472757337E1
1.503231863E1,8.663212491E0,8.361223683E0,6.258492429E0,1.356945244E1
1.504226263E1,8.236898430E0,7.431932716E0,6.456597850E0,1.283619007E1
1.505220563E1,7.681459721E0,6.231018702E0,7.516126190E0,1.242266358E1
1.506214963E1,7.328550435E0,4.821454983E0,8.040734285E0,1.189989443E1
1.507209362E1,7.015937237E0,3.994847847E0,7.692598082E0,1.115160302E1
1.508203763E1,6.593555428E0,3.615988326E0,6.402998178E0,9.876676082E0
1.509198163E1,5.848092735E0,3.511257677E0,3.980042405E0,7.897458873E0
1.510192463E1,5.138062415E0,3.296810458E0,1.018983747E0,6.189262674E0
1.511186863E1,4.730230817E0,2.687258107E0,-1.746127698E0,5.713615463E0
1.512181263E1,4.156812505E0,1.830359763E0,-4.428312761E0,6.343442359E0
1.513175663E1,3.315722985E0,9.331197238E-1,-6.547465335E0,7.398245309E0
1.514170063E1,2.422845407E0,7.700461417E-2,-7.657041163E0,8.031586951E0
1.515164363E1,1.485057267E0,-7.717871502E-1,-8.176900150E0,8.346421183E0
1.516158763E1,3.754339296E-1,-1.675585426E0,-8.491741723E0,8.663614410E0
1.517153163E1,-9.313448015E-1,-2.173865556E0,-8.548695357E0,8.869796329E0
1.518147563E1,-1.892819721E0,-2.145607571E0,-8.320689030E0,8.798878581E0
1.519141963E1,-2.117880220E0,-1.962059525E0,-7.737212922E0,8.258302368E0
1.520136262E1,-2.111956991E0,-1.620491499E0,-7.562806267E0,8.017630177E0
1.521130663E1,-1.795965563E0,-1.464672703E0,-7.910503929E0,8.242986767E0
1.522125063E1,-1.500576362E0,-1.355786584E0,-8.649356929E0,8.882638232E0
1.523119462E1,-1.399335769E0,-1.226817180E0,-9.696679206E0,9.873642115E0
1.524113863E1,-1.455974970E0,-1.208638186E0,-1.063900654E1,1.080597657E1
1.525108162E1,-1.551590979E0,-1.252433832E0,-1.125912364E1,1.143432946E1
1.526102563E1,-1.597400406E0,-1.348389272E0,-1.154462447E1,1.173235679E1
1.527096963E1,-1.641464584E0,-1.422563834E0,-1.149912962E1,1.170248162E1
1.528091362E1,-1.747094973E0,-1.450143396E0,-1.128604071E1,1.151216625E1
1.529085763E1,-1.848971597E0,-1.451599499E0,-1.103480925E1,1.128241340E1
1.530080063E1,-1.819742389E0,-1.482737530E0,-1.059268724E1,1.084965418E1
1.531074463E1,-1.794847283E0,-1.468823057E0,-1.031112743E1,1.056874008E1
1.532068863E1,-1.669429185E0,-1.540474107E0,-1.013573435E1,1.038716348E1
1.533063263E1,-1.433723829E0,-1.625715986E0,-9.901262172E0,1.013575400E1
1.534057663E1,-1.218900050E0,-1.666450029E0,-9.610254436E0,9.829535256E0
1.535051963E1,-9.745683698E-1,-1.772976943E0,-9.352298085E0,9.568631575E0
1.536046363E1,-7.669677289E-1,-1.958242462E0,-9.082099419E0,9.322418297E0
1.537040763E1,-7.612071982E-1,-2.183198882E0,-8.813761922E0,9.111980738E0
1.538035163E1,-8.185811745E-1,-2.373452661E0,-8.625275171E0,8.983246877E0
1.539029563E1,-7.810332061E-1,-2.502421481E0,-8.346572900E0,8.748565900E0
1.540023863E1,-8.004125599E-1,-2.627997161E0,-8.112751517E0,8.565265117E0
1.541018262E1,-8.632471047E-1,-2.782076556E0,-7.996417653E0,8.510454794E0
1.542012663E1,-1.015181668E0,-2.876463481E0,-7.992072587E0,8.554405895E0
1.543007063E1,-1.176822901E0,-2.910571167E0,-8.011340917E0,8.604529037E0
1.544001462E1,-1.308228841E0,-2.948562866E0,-7.894362690E0,8.527980297E0
1.544995763E1,-1.365807396E0,-3.067006989E0,-7.714849076E0,8.413730325E0
1.545990162E1,-1.314787662E0,-3.185082446E0,-7.293974095E0,8.066937144E0
1.546984563E1,-1.410524709E0,-3.054460034E0,-6.849514369E0,7.631196050E0
1.547978963E1,-1.347265729E0,-2.874064076E0,-6.271204861E0,7.028753777E0
1.548973362E1,-1.424950667E0,-2.766687269E0,-5.552930551E0,6.365538513E0
1.549967663E1,-1.669755460E0,-2.517353223E0,-4.230461109E0,5.198264301E0
1.550962063E1,-1.746415966E0,-2.058599102E0,-2.597370030E0,3.746215432E0
1.551956463E1,-1.769038551E0,-1.299452755E0,-8.448127341E-1,2.351974364E0
1.552950863E1,-1.803627170E0,3.942286348E-1,8.273880315E-1,2.023130777E0
1.553945263E1,-2.007197106E0,2.541396974E0,3.183580297E0,4.541224758E0
1.554939563E1,-9.973218593E-1,4.116231366E0,9.441376907E0,1.034783115E1
1.555933963E1,1.594078018E0,3.505872976E0,2.066008869E1,2.101598189E1
1.556928363E1,4.688615599E0,1.010420792E0,3.343871306E1,3.378093541E1
1.557922763E1,8.115820720E0,-1.194896060E0,4.257811460E1,4.336115965E1
1.558917163E1,1.152909193E1,-2.772840002E0,4.532552945E1,4.685095754E1
1.559911463E1,1.449998852E1,-4.305042930E0,4.293421939E1,4.552065747E1
1.560905863E1,1.153623956E1,-8.615568209E-1,3.646944421E1,3.826025960E1
1.561900262E1,7.581352465E0,6.872270563E-1,2.946292216E1,3.043046120E1
1.562894663E1,3.765492859E0,6.493037698E-1,2.315965410E1,2.347275249E1
1.563889063E1,-8.912837729E-2,1.040168501E0,1.744611515E1,1.747732325E1
1.564883363E1,-2.046274340E0,1.347187961E0,1.147690319E1,1.173547872E1
1.565877763E1,-2.483257524E0,2.295269833E0,5.909346412E0,6.808465800E0
1.566872292E1,-1.673961947E0,3.583448863E0,1.688943098E0,4.300672406E0
1.567866692E1,-1.767122126E-1,5.039081917E0,-1.307142720E0,5.208857444E0
1.568861092E1,1.127241948E0,6.306805633E0,-3.976681425E0,7.540587965E0
1.569855392E1,2.101184958E0,6.921553820E0,-5.327592309E0,8.983658794E0
1.570849792E1,1.858132429E0,7.187919636E0,-6.102420888E0,9.610327024E0
1.571844192E1,6.539025318E-1,6.447207221E0,-6.255664131E0,9.007075174E0
1.572838592E1,-1.243602636E0,5.148076941E0,-5.862479224E0,7.900500387E0
1.573832992E1,-3.538289355E0,4.324591341E0,-4.787419510E0,7.358054593E0
1.574827292E1,-5.358109512E0,3.841687927E0,-2.653250701E0,7.106872937E0
1.575821692E1,-6.419714198E0,3.305456736E0,-1.043952527E0,7.295794096E0
1.576816092E1,-6.633314155E0,3.037788160E0,-7.554368734E-1,7.334827773E0
1.577810492E1,-6.580136653E0,2.837174577E0,-2.228912414E0,7.504385951E0
1.578804792E1,-5.857310870E0,2.401738128E0,-3.833854412E0,7.401005088E0
1.579799192E1,-4.780898110E0,1.964959744E0,-4.641513938E0,6.947064500E0
1.580793592E1,-3.611825109E0,1.621743680E0,-5.024033523E0,6.396580807E0
1.581787992E1,-2.622745484E0,1.370605768E0,-5.185369897E0,5.970378130E0
1.582782392E1,-1.807623303E0,9.896130364E-1,-5.492384972E0,5.866270421E0
1.583776792E1,-1.441056823E0,6.143812743E-1,-6.079484600E0,6.278076307E0
1.584771092E1,-1.139130945E0,3.029835655E-1,-6.629984166E0,6.733951915E0
1.585765492E1,-9.131445388E-1,1.915905990E-1,-7.149811578E0,7.210433101E0
1.586759892E1,-7.558989497E-1,2.049788225E-1,-7.671148741E0,7.711026037E0
1.587754292E1,-4.167564949E-1,1.482296942E-1,-8.096561746E0,8.108635528E0
1.588748592E1,7.753334865E-2,2.674867272E-2,-8.368622165E0,8.369024068E0
1.589742992E1,4.902481019E-1,-1.118322386E-1,-8.392859459E0,8.407909345E0
1.590737392E1,7.316927925E-1,-3.776171337E-1,-8.243938478E0,8.284955683E0
1.591731792E1,8.299675307E-1,-6.590654039E-1,-8.107415348E0,8.176392660E0
1.592726192E1,8.817953499E-1,-9.945450166E-1,-8.023058152E0,8.132413230E0
1.593720492E1,8.875826316E-1,-1.389979055E0,-8.036328408E0,8.203805153E0
1.594714892E1,8.371533202E-1,-1.888965967E0,-8.031268812E0,8.292785831E0
1.595709292E1,5.016424249E-1,-2.403681597E0,-8.161173479E0,8.522563165E0
1.596703692E1,7.386582881E-2,-2.808750092E0,-8.265069146E0,8.729599144E0
1.597698092E1,-1.709341402E-1,-3.028735209E0,-8.282693238E0,8.820740486E0
1.598692392E1,-5.399830565E-1,-3.248539939E0,-8.437402963E0,9.057282274E0
1.599686792E1,-9.174085477E-1,-3.453885967E0,-8.666925473E0,9.374783404E0
1.600681192E1,-1.188176440E0,-3.634021432E0,-8.861574020E0,9.651184856E0
1.601675592E1,-1.394699220E0,-3.830291411E0,-9.073419812E0,9.947022936E0
1.602669992E1,-1.709521497E0,-4.000037543E0,-9.250744813E0,1.022247738E1
1.603664292E1,-2.089399602E0,-4.202854065E0,-9.069188767E0,1.021174607E1
1.604658692E1,-2.361865526E0,-4.323594975E0,-8.584941663E0,9.898136472E0
1.605653092E1,-2.529775340E0,-4.284286776E0,-8.104043843E0,9.509490158E0
1.606647492E1,-2.435236388E0,-4.149863673E0,-7.401271087E0,8.827828639E0
1.607641892E1,-2.196185109E0,-3.746768613E0,-6.401759738E0,7.735892438E0
1.608636192E1,-1.645603682E0,-2.976642657E0,-3.874641665E0,5.155701796E0
1.609630592E1,-1.329155002E0,-1.160684001E0,2.865825641E-1,1.787727590E0
1.610624992E1,-1.969441927E0,1.034988161E0,4.659410511E0,5.163333061E0
1.611619392E1,-3.626637860E0,3.236985548E0,7.942327400E0,9.311881772E0
1.612613692E1,-5.405691229E0,6.138247948E0,1.103555769E1,1.373619740E1
1.613608092E1,-5.161264166E0,8.499443675E0,1.490708337E1,1.791927245E1
1.614602492E1,-2.891165427E0,9.093705558E0,1.873755926E1,2.102737372E1
1.615596892E1,-1.739377087E-1,9.481582362E0,2.140064089E1,2.340765022E1
1.616591292E1,1.705756328E0,1.002048924E1,2.181497225E1,2.406684075E1
1.617585592E1,2.925585355E0,1.029971717E1,2.114165601E1,2.369837215E1
1.618579992E1,4.091446773E0,1.010848633E1,2.118533939E1,2.382729606E1
1.619574392E1,3.921089607E0,8.898186361E0,2.175006348E1,2.382473348E1
1.620568792E1,2.392829457E0,7.081990893E0,2.213080843E1,2.335921467E1
1.621563192E1,-1.289887002E-1,5.629278231E0,2.100225137E1,2.174396409E1
1.622557492E1,-2.465615305E0,4.734986358E0,1.786247900E1,1.864316257E1
1.623551892E1,-3.876168957E0,4.195725140E0,1.381813301E1,1.495224382E1
1.624546292E1,-3.937423804E0,3.566008081E0,1.036765247E1,1.164937498E1
1.625540692E1,-2.685439038E0,2.818902905E0,7.415514904E0,8.375419853E0
1.626535092E1,-5.574000116E-1,2.127061518E0,4.630302486E0,5.125893736E0
1.627529392E1,1.761025672E0,1.602697252E0,1.735002785E0,2.946198324E0
1.628523792E1,3.334555405E0,1.346871627E0,-8.160292304E-1,3.687712927E0
1.629518192E1,4.369143616E0,1.220090835E0,-2.584221981E0,5.220750983E0
1.630512592E1,5.097811351E0,6.603096914E-1,-3.650533676E0,6.304766894E0
1.631506992E1,5.007038006E0,-1.124065813E-1,-4.260423412E0,6.575277369E0
1.632501292E1,4.211705873E0,-8.246407172E-1,-4.709334623E0,6.371525034E0
1.633495692E1,3.179846849E0,-1.334400101E0,-5.316140537E0,6.336671036E0
1.634490092E1,2.139820874E0,-1.628691049E0,-6.029765140E0,6.602237163E0
1.635484492E1,1.451306553E0,-2.031614494E0,-6.696844738E0,7.147130726E0
1.636478792E1,9.050042644E-1,-2.342797171E0,-7.080937225E0,7.513148693E0
1.637473192E1,5.192181319E-1,-2.657518291E0,-7.163434421E0,7.658118805E0
1.638467592E1,5.515588624E-1,-2.742552302E0,-7.016766956E0,7.553861849E0
1.639461992E1,7.937218103E-1,-2.614884488E0,-7.136181718E0,7.641511939E0
1.640456392E1,1.151623522E0,-2.506749590E0,-7.500731056E0,7.991933221E0
1.641450692E1,1.452013920E0,-2.276480098E0,-8.176790223E0,8.611074521E0
1.642445092E1,1.733698564E0,-2.021002090E0,-9.185028541E0,9.563206024E0
1.643439492E1,1.893344216E0,-1.844286369E0,-1.018473168E1,1.052211499E1
1.644433892E1,1.896148540E0,-1.637246695E0,-1.088306464E1,1.116767890E1
1.645428292E1,1.780893488E0,-1.452049003E0,-1.126687120E1,1.149880057E1
