Time (s),Linear Acceleration x (m/s^2),Linear Acceleration y (m/s^2),Linear Acceleration z (m/s^2),Absolute acceleration (m/s^2)
0.0342542916769162,-0.630934157073498,1.03227329850197,-0.434395498037338,1.28544370630428
0.0442242916906253,0.0263846835494041,0.962378021478653,-0.375402939319611,1.03334165434331
0.0541932916967198,-0.321806775927544,1.00253552913666,0.135610379576683,1.06161540270624
0.0641632917104289,-0.308833558559418,1.15263413965702,0.141633596420288,1.20166705140413
0.074133291724138,-0.0461365780234337,0.990090900063515,-0.141880348920822,1.00126849926989
0.0841022917302325,0.204241196215153,0.42177194416523,-0.638733465671539,0.792203559247931
0.0940722917439416,0.347745609283447,-0.161324095129967,-1.02104781389236,1.09063793749337
0.104042291757651,0.44100007429719,-0.418685783743858,-0.88795816898346,1.07621956909536
0.114011291763745,0.504594537913799,-0.538544933795929,-0.758663367033005,1.0584027578798
0.123981291661039,0.340606451332569,-0.508872653245926,-0.669083438515663,0.906993263264319
0.133951291674748,0.00583742156624794,-0.276499040722847,-0.487064877748489,0.560105338438537
0.143920291680843,-0.392902924865484,0.00957540035247803,-0.304622393846512,0.497251646043069
0.153890291694552,-0.587818543016911,0.215554681420326,-0.229046546816826,0.666675918873222
0.163860291708261,-0.403681536018848,0.113884465098381,-0.447297379374504,0.613191160657572
0.173829291714355,-0.493333092927933,-0.0882040786743164,-0.294544717669487,0.581303785278939
0.183799291728064,-0.482569684535265,-0.248795517683029,-0.238219658732414,0.592892330746671
0.193769291741774,-0.224932738244534,-0.126172973513603,-0.179089690446854,0.313986422005472
0.203738291747868,0.266845141500235,-0.0314486646652222,0.336953988075256,0.430967908470371
0.213708291761577,0.765777820497751,-0.193680832386017,0.785695044994354,1.11411159177558
0.223678291658871,1.0059755191952,-0.572869843840599,1.19953465640545,1.66704828817876
0.233647291664965,1.1019126136601,-0.948657529950142,1.42490681290627,2.035809898478
0.243617291678675,1.05295577734709,-0.986390781998634,1.46036315917969,2.05288655325855
0.253587291692384,0.668577727451921,-0.49439377784729,1.39561869442463,1.62455314639023
0.263557291706093,0.16918596893549,0.148575410842896,1.24958799183369,1.26971205165845
0.273526291712187,-0.0928681102395058,0.521794999837875,0.888037691116333,1.03416896520757
0.283496291725896,-0.0586984437704086,0.586244764924049,0.335181112289429,0.677845712339837
0.293466291739605,0.111482757814229,0.416304212808609,0.0258031779527664,0.431744608402379
0.3034352917457,0.239138256311417,0.101465563774109,-0.068608889579773,0.268681123254002
0.313405291759409,0.221699520349503,-0.147473795413971,-0.232343791723251,0.353387655711598
0.323375291656703,0.0512181007862091,-0.271459325551987,-0.276259304881096,0.390682304194434
0.333344291662797,-0.181634069792926,-0.283150833249092,-0.214564747810364,0.399002958237307
0.343314291676506,-0.44309611838311,-0.237431454062462,-0.319628103375435,0.595709652407758
0.353284291690215,-0.694741313159466,-0.0822399187088013,-0.610129471421242,0.928270902450644
0.36325329169631,-0.740145819783211,0.187504418492317,-0.773488982319832,1.08685737209023
0.373224000097252,-0.450228296220303,0.449977158308029,-0.557381154298782,0.846084341471847
0.383193999994546,0.0573611855506897,0.51458596765995,-0.0949505960941315,0.52640729423037
0.393163000000641,0.520120357275009,0.404494006633759,0.285265186429024,0.717994995834163
0.40313300001435,0.547928545475006,0.215210280418396,0.389642078876495,0.705947664756615
0.413103000028059,0.367606261968613,0.0223609220981598,0.210824868679047,0.42436010642985
0.423072000034153,0.268210904896259,-0.0340272867679596,0.00259850263595581,0.270373256750752
0.433042000047863,-0.0449735668301582,-0.0955610454082489,-0.572903757691383,0.582557508482941
0.443012000061572,-0.759239317774773,-0.306087121367455,-1.36554412543774,1.59211947605688
0.452981000067666,-0.959978031814098,-0.100683791041374,-1.06464231491089,1.43706586698138
0.462951000081375,-1.07359761804342,0.0373093289136887,-0.890494691133499,1.39534390973317
0.472921000095084,-1.3209807407856,-0.142894840836525,-0.37116780102253,1.37955593927179
0.482890999992378,-1.12518701702356,-0.289947052001953,0.298684546351433,1.19971978998105
0.492859999998473,-0.661723840534687,-0.418031480312347,0.740627630352974,1.07757043691184
0.502830000012182,-0.182788346707821,-0.586861646175385,1.01198112130165,1.18402869953173
0.512800000025891,0.23040222376585,-0.634348638653755,1.11787302732468,1.30580376982844
0.522769000031985,0.455085285902023,-0.739074609875679,0.900662414431572,1.25081040976525
0.532739000045694,0.249593077898026,-0.247774009108543,0.668606890439987,0.75546266490685
0.542709000059404,0.00208804070949554,0.260963573455811,0.405441255569458,0.482171088206841
0.552678000065498,0.222376335561276,0.11139121234417,0.0695081913471222,0.258245281601645
0.562648000079207,0.377585120201111,-0.0590767586231232,0.0364608979225159,0.383914031371632
0.572618000092916,0.182029085755348,-0.204949586391449,-0.108959355354309,0.294976375566215
0.582587000099011,-0.269048226177692,-0.318943979144096,-0.336815409064293,0.536243256017994
0.592556999996305,-0.450038846433163,-0.463509954214096,-0.59712994158268,0.879738943146761
0.602527000010014,-0.473772402405739,-0.457894873023033,-0.650043150186539,0.925572310047424
0.612496000016108,-0.515699862241745,-0.282758485078812,-0.687657119035721,0.904859669871924
0.622466000029817,-0.112147842049599,-0.161721121072769,-0.644204120635986,0.673594691577806
0.632436000043526,0.188667429685593,-0.306489994525909,-0.585438433885574,0.687218797501243
0.642405000049621,-0.020249784886837,0.0352201187610626,-0.667042175531387,0.668278216382333
0.65237500006333,-0.374847453832626,0.197706055641174,-0.765880000591278,0.875311643580554
0.662345000077039,-0.202459841966629,-0.00217574894428253,-0.7503889721632,0.777224762238547
0.672315000090748,-0.245286018848419,-0.257211415171623,-0.630071985125542,0.723404208984947
0.682284000096843,-0.166630443334579,-0.407753244638443,-0.384565526247025,0.584738451905386
0.692253999994136,-0.13797937899828,-0.376526189446449,-0.298285181522369,0.499784283349974
0.702224000007846,-0.0232780578732491,-0.258657431602478,-0.147120623588562,0.29847950145132
0.71219300001394,-0.117424077093601,-0.181505759954453,-0.092502366900444,0.235137072066724
0.722163000027649,-0.239014002978802,-0.0998353600502014,-0.0105062770843506,0.259239608459967
0.732133000041358,-0.344634598195553,-0.0770668870210648,0.0618115013837814,0.358514955129971
0.742102000047453,-0.231171717345715,-0.0493984472751617,0.129255040884018,0.26942055431554
0.752072000061162,-0.0187151831388474,0.0409486359357834,0.176574218273163,0.182223772937837
0.762042000074871,0.107059576716274,0.127751137018204,0.311782309412956,0.353539692876186
0.772011000080966,0.146795518398285,0.117933077216148,0.452725934386253,0.490324287170641
0.781981000094675,0.0998230808973313,-0.00629979014396668,0.409418531656265,0.42145921380279
0.791950999991968,-0.117073536515236,-0.0763634669780731,0.138784832954407,0.196974165563096
0.801919999998063,-0.292911882698536,0.0118604922294617,-0.189661456346512,0.349155424310443
0.811890000011772,-0.543325324952602,0.139887617826462,-0.617182967662811,0.834077796089243
0.821860000025481,-0.705638768970966,0.157509956359863,-0.943575714826584,1.18872645643893
0.83183000003919,-0.706552396416664,0.0354165852069855,-0.929433054327965,1.16803956519771
0.841799000045285,-0.34145575940609,0.0229854047298431,-0.647635266780853,0.732496964662988
0.851769000058994,-0.049035042822361,0.0610653966665268,-0.247637184262276,0.259725996242154
0.861739000072703,0.164892066121101,-0.0283402848243713,0.0631230318546295,0.178821369987294
0.871708000078797,0.156501604020596,-0.131229645609856,0.20174998998642,0.287083664473317
0.881678000092506,0.0163023295998573,-0.188107851147652,0.246518611907959,0.310518527033084
0.8916479999898,-0.195720048844814,-0.229324874281883,0.268501219153404,0.403719135255046
0.901616999995895,-0.407447142899036,-0.321529033184052,0.250650839209557,0.576385232837652
0.911587000009604,-0.544961960613728,-0.41148084461689,0.247185779213905,0.726223680038163
0.921557000023313,-0.619547874033451,-0.416292518377304,0.221966153383255,0.778722031487517
0.931526000029407,-0.520464173555374,-0.326451219320297,0.243541794419289,0.660882712876767
0.941496000043117,-0.366753737926483,-0.298243081569672,0.282245099544525,0.550562926652458
0.951466000056826,-0.239652518928051,-0.286234654784203,0.317562866806984,0.490112009445455
0.96143500006292,-0.138407687544823,-0.285161690711975,0.359687962532044,0.479426019539689
0.971405000076629,-0.054199906680733,-0.288751296401024,0.407821072340012,0.502626071848675
0.981375000090338,0.0705694609880447,-0.337001935243607,0.248629456758499,0.424696314971187
0.991345000104047,0.105644568800926,-0.341580305099487,-0.0413357216119766,0.359925716822479
1.00131399999373,0.0838967272639275,-0.309066862463951,-0.268700609207153,0.418044260464372
1.01128400000744,0.114655712842941,-0.18076550245285,-0.49907681286335,0.543046742465502
1.02125400002114,0.233247752990574,-0.0208581876754761,-0.670958055853844,0.710650611048374
1.03122300002724,0.512608402781189,0.059832803606987,-0.708500688672066,0.876538969377942
1.04119300004095,0.910703837871552,0.200178843140602,-0.644086591601372,1.13326986505234
1.05116300005466,0.692552407979965,0.453378483653069,-0.572013811469078,1.00617130139444
1.06113200006075,0.487123349905014,0.522379136681557,-0.419992636442185,0.828590933530236
1.07110200007446,0.510270137786865,0.366115221977234,-0.198991273641586,0.658797006873867
1.08107200008817,0.722463547289372,0.0998838919401169,0.0353733158111572,0.730192878972757
1.09104100009426,0.692082876563072,-0.2867024320364,0.330091695785523,0.818619276705579
1.10101099999156,0.560619049966335,-0.739958124160767,0.606945662498474,1.10915047758291
1.11098100000527,0.414098643064499,-1.07369146585464,0.769014692902565,1.38407898905264
1.12095100001898,0.257578912675381,-1.2427467495203,0.722573182582855,1.46043773707961
1.13092000002507,0.177000480294228,-1.33457727134228,0.475846994519234,1.42788515833759
1.14089000003878,0.184015695545822,-1.34565832972527,0.131731336712837,1.364555334766
1.15086000005249,0.245648253858089,-1.08480234503746,-0.120625720024109,1.11878941573186
1.16082900005858,0.298338391184807,-0.648748576641083,-0.379156851768494,0.808480321091098
1.17079900007229,0.262355795502663,-0.298699164390564,-0.579298857450485,0.70259442104595
1.180769000086,0.202653092443943,-0.167435020208359,-0.506078853607178,0.570279377093037
1.1907380000921,-0.0189756765961647,-0.233934819102287,-0.0787134629487991,0.247550772852953
1.20070799998939,-0.221761464290321,-0.400764067769051,0.446927835345268,0.639948806597364
1.2106780000031,-0.606857077181339,-0.62380727827549,0.92528328537941,1.27025989102902
1.22064700000919,-1.00211979210377,-0.819713560938835,1.42616571843624,1.92616797194738
1.2306170000229,-1.20388323068619,-0.685035227537155,1.81388055503368,2.2822731571886
1.24058700003661,-0.849653936326504,-0.286891297101975,1.66381293475628,1.8901036769792
1.25055700005032,-0.211148804426193,0.0211078637838364,0.811272520422936,0.838565717113161
1.26052600005642,0.266035155951977,0.150630707144737,-0.0376361882686615,0.30802726633321
1.27049600007012,0.566738161146641,0.108015614748001,-0.62728227853775,0.852257339831565
1.28046600008383,0.903430778682232,0.00388781368732452,-1.07612449228764,1.4050787201673
1.29043500008993,1.12831527739763,-0.0332016599178314,-1.36363617897034,1.77022635389574
1.30040500010364,1.20327278137207,-0.10638950407505,-1.37101711928844,1.82725806999181
1.31037500000093,1.34313467144966,-0.190158469676971,-1.20037607073784,1.81137342931823
1.32034400000703,1.37273795485497,-0.0565197712182999,-0.999356397986412,1.69891647453144
1.33031400002074,1.55478662878275,0.472202425003052,-0.551598842740059,1.71598306359141
1.34028400003444,1.51966708213091,0.921942771077156,-0.404666499495506,1.82294308453875
1.35025300004054,0.420636707246304,1.33719857811928,-0.0641158890724182,1.40326267107722
1.36022300005425,-0.476616488099098,1.74098390221596,0.149928456544876,1.81126109840215
1.37019300006796,-0.921328813433647,2.36669795751572,0.134177227020264,2.54324783157736
1.3801629167283,-1.19443179130554,3.02001204013824,-0.11083397269249,3.2495267649558
1.39013191673439,-1.69487539082766,2.7571428591013,-0.364072789549828,3.25683716694849
1.4001019167481,-2.16597035318613,2.58898804664612,-0.204273648262024,3.38171767005053
1.41007191676181,-2.71546039760113,2.34313309371471,0.112150765657425,3.5883945797583
1.4200409167679,-2.9151501211524,1.55244978904724,0.475854595899582,3.33686052642397
1.4300109166652,-1.8330673161149,0.359454073905945,1.09396493196487,2.16474069787242
1.43998091667891,-0.842111028134823,-0.345746446251869,1.80893790364265,2.02507973374807
1.449949916685,-0.524450805187225,-0.370091328620911,2.39747828543186,2.48191828384804
1.45991991669871,-0.30346285443753,0.0466485017538071,2.7543145608902,2.77137411532096
1.46988991671242,-0.363947366774082,0.23363310277462,2.52601236462593,2.56276814767489
1.47985991672613,-0.723132468760014,0.111112884879112,1.85521101415157,1.99426040114886
1.48982891673222,-1.08277131468058,0.127538298368454,1.07906154870987,1.53396009183745
1.49979891674593,-1.31608282059431,0.115203596949577,0.50758918941021,1.41527122652151
1.50976891675964,-1.33940473258495,0.0194776600599289,0.178489766120911,1.35138559024517
1.51973791676573,-1.37108904004097,0.0789736640453339,0.124343964457512,1.37897912124521
1.52970791666303,-1.19494254559279,-0.0216592562198639,0.25063563644886,1.22113677895062
1.53967791667674,-0.981047011613846,-0.344197518825531,0.399610996842384,1.11382858634508
1.54964691668283,-0.787761743366718,-0.577230697274208,0.487054352760315,1.09132295161909
1.55961691669654,-0.448138208985329,-0.630477197170258,0.497199856638908,0.919530884715676
1.56958691671025,0.0905899619311094,-0.613010394573212,0.353634340167046,0.713474268353713
1.57955591671634,0.587260170467198,-0.587458062171936,0.190362537503243,0.852185061071034
1.58952591673005,0.883844945132733,-0.517676805853844,0.0669430178403854,1.0264757814938
1.59949591674376,1.04115492671728,-0.330731965899467,-0.134704645872116,1.10069639606702
1.60946591675747,1.13781232506037,-0.103896836042404,-0.387180401086807,1.20636648767472
1.61943491676357,1.27269969642162,-0.141773344874382,-0.576638374328613,1.40441304940424
1.62940491666086,1.40145538508892,-0.382446495294571,-0.721148800849915,1.62185021229616
1.63937491667457,1.2970641669631,-0.584927971959114,-0.827599115967751,1.64603659812001
1.64934391668066,0.789489887952805,-0.558141292333603,-0.843622825741768,1.28316618467761
1.65931391669437,0.162912564352155,-0.496879429221153,-0.729771689772606,0.897773016970603
1.66928391670808,-0.33557243719697,-0.397069212198257,-0.600169909000397,0.794025654215028
1.67925291671418,-0.600353365391493,-0.155763977766037,-0.407566133737564,0.742156811917923
1.68922291672789,-0.503799243494868,0.159058883786201,-0.143957572281361,0.547573911791328
1.69919291674159,0.0393705455213785,0.323711214065552,0.0359916588664055,0.328076804230961
1.7091629167553,0.0987626883387566,-0.758140625953674,0.0769277232885361,0.768406892173466
1.7191319167614,0.642502580881119,-0.876202926635742,0.0565443295240402,1.0879974247604
1.72910191665869,1.49998491570354,0.660028440356255,0.412072875201702,1.68979180489617
1.7390719166724,1.40944268167019,1.53725638389587,0.8322453135252,2.24551066010093
1.7490409166785,0.517530479282141,1.48336201250553,0.846654314696789,1.78466360576024
1.7590109166922,0.272148273736239,1.09712008953095,0.650234646499157,1.3040484152277
1.76898091670591,1.30908326491714,0.805070378780365,0.396540331542492,1.58716147376866
1.77894991671201,1.85540616497397,0.553607361316681,0.0983639082312584,1.93873376356063
1.78891991672572,1.73313328430057,0.0391038393974304,-0.0432515618205071,1.73411383392383
1.79888991673943,1.5842039707303,-0.578745126128197,0.0782781377434731,1.68842400147101
1.80885991675314,0.65220866650343,-0.641344247460365,0.386136673092842,0.992874674226255
1.81882891675923,-0.0967532926797867,-0.470106782913208,0.463476040363312,0.667211830662677
1.82879891665652,-0.130077451765537,-0.783394750356674,0.0936826273798943,0.79962735884724
1.83876891667023,-0.196044861674309,-1.07558888733387,-0.440131031870842,1.17857556718299
1.84873791667633,-0.62117486178875,-1.25578311681747,-0.710787534713745,1.57100870936686
1.85870791669004,-1.11725673079491,-1.49534471154213,-0.593536535203457,1.95872510257689
1.86867791670375,-1.44159038096666,-1.58809324622154,-0.236149452030659,2.15777421174795
1.87864691670984,-1.91304114639759,-1.56312446594238,0.292697582244873,2.4877211255464
1.88861691672355,-2.42810453921557,-1.77827276587486,0.846393236517906,3.12639204100105
1.89858691673726,-2.05756648331881,-1.85786623477936,1.24566100180149,3.03922985491707
1.90855691675097,-1.15894036173821,-1.74948692321777,1.18424711108208,2.40962413597684
1.91852591675706,-0.400843297541142,-1.74124702692032,0.925801348686218,2.01239277855287
1.92849591677077,-0.119463293552399,-1.33706935465336,0.96635529756546,1.65404609935526
1.93846591666807,0.761131476759911,-0.0473940217494965,1.20935710161924,1.42972442010662
1.94843491667416,1.31893450766802,0.669816094636917,1.31798038825393,1.98124055580692
1.95840491668787,1.30366947412491,0.618769317269325,0.946368929743767,1.72570093496626
1.96837491670158,0.437361790537834,0.594220367074013,0.588692994117737,0.943897569544143
1.97834391670767,-0.206598501205444,0.869014944434166,0.659084699749947,1.11007322091596
1.98831391672138,0.0726966780424118,0.781500837206841,0.753237004727125,1.08783930377776
1.99828391673509,0.89827499628067,0.676403567790985,0.742200092822313,1.34732354438303
2.0082539167488,1.45987374722958,0.962894915342331,0.825448656231165,1.93384680363158
2.01822291675489,1.32002179741859,1.06147838652134,0.765694205313921,1.85889255385121
2.0281929167686,1.66047008156776,1.42133299469948,-0.229310256242752,2.19771052853217
2.0381629166659,1.2719799041748,1.941242852211,-1.10308892726898,2.56966182003552
2.04813191667199,0.747526760101318,2.3779608643055,-1.96415750563145,3.17354830373897
2.0581019166857,0.756198180913925,2.49645527422428,-2.30024376690388,3.47782202135185
2.06807191669941,0.404955351948738,1.77196771323681,-1.86469461321831,2.60402465702439
2.0780409167055,-0.287572497725487,1.3074216324091,-0.202780269384384,1.35394575371059
2.08801091671921,0.103964663743973,0.638897187709808,1.25307702541351,1.41039012311845
2.09798091673292,1.14736053586006,-0.207981952428818,1.40181089580059,1.82339421940798
2.10795091674663,1.95255662977695,-0.444663793444634,1.1764837628603,2.32256696910131
2.11791991675273,1.9840789693594,-0.608741927146912,0.552990553155542,2.14777434624778
2.12788991676644,1.68452201843262,-0.940779576301575,-0.742914476394653,2.06751119972957
2.13785991666373,0.985779163241387,-1.34938008248806,-2.42771657645702,2.94726906496516
2.14782891666982,1.0139773607254,-1.23924309790134,-3.68809268116951,4.02068416673778
2.15779891668353,0.862543246150017,-1.38576379716396,-4.149984126091,4.45944956242546
2.16776891669724,0.0980174607038498,-1.79075013935566,-3.91730295002461,4.30832402292082
2.17773891671095,-0.514429847002029,-1.88081714093685,-3.17061643481255,3.72221973583396
2.18770791671705,-0.132158183455467,-1.49868931889534,-2.05990215361118,2.55082973608142
2.19767791673075,0.862830344438553,-1.17194983184338,-1.37387114524841,2.00136566758498
2.20764791674446,1.52701790928841,-1.17458400249481,-1.49458340406418,2.43828030093103
2.21761691675056,1.38241802036762,-1.47308903932571,-2.14688182532787,2.94790984813678
2.22758691676427,0.742249063253403,-1.72456199705601,-3.26662537693977,3.76774323791541
2.23755691666156,0.286930473446846,-1.91761893153191,-4.20345457434654,4.62910594194569
2.24752591666766,-0.295230011343956,-1.96723431050777,-3.9485703510046,4.42135492907658
2.25749591668136,-0.632031971812248,-2.11654296219349,-2.90606442511082,3.65026423250404
2.26746591669507,1.43035817205906,-1.51832076072693,-0.251175334453583,2.10102629242673
2.27743591670878,1.78449186444283,-0.617751901745796,2.14085919320583,2.85469905795814
2.28740491671488,-3.2145301938057,-2.49551913499832,0.183962175250053,4.07365464932338
2.29737491672859,-2.07152349472046,-3.67786473155022,-1.69190529763699,4.54757540992251
2.3073449167423,-0.419775704741478,-2.56839883089066,-1.88761175170541,3.21495914779458
2.31731391674839,1.29538396954536,-1.19413007497787,-0.156603053212166,1.76875401930205
2.3272839167621,0.0772031271457672,-0.199433907866478,0.231915190815926,0.315466103058898
2.33725391665939,0.00581096291542053,0.259211162924767,-0.580312764644623,0.635599794748472
2.34722291666549,0.719099351763725,0.933295140266419,0.217883627414703,1.19817234638733
2.3571929166792,0.706854112744331,1.59714415132999,1.60630089104176,2.37291271002385
2.36716291669291,-0.675869717001915,1.28174884736538,1.65264943063259,2.1979376976277
2.37713250005618,-4.42073652327061,-4.38460774719715,1.83889757484198,6.49224466542348
2.38710150006227,-4.33843286991119,-4.50418740034103,3.86965779036284,7.35417944563719
2.39707150007598,13.2782315254211,8.80155878305435,6.69323992967606,17.2794192671646
2.40704150008969,5.6813447624445,7.85282582402229,4.60105471372604,10.7291311955297
2.41701050009578,-0.586192724704743,4.21775510966778,2.74965082168579,5.06889136960172
2.42698049999308,-1.74691648721695,3.70816266417503,0.901292451918125,4.19696505122174
2.43695050000679,-3.05927667796612,3.77167979836464,-0.304925864338875,4.86597596340982
2.4469205000205,-1.79403510510922,3.61703380823135,-0.780462371706963,4.11225206449013
2.45688950002659,-1.61465246915817,1.8321706455946,-0.204782648384571,2.45069129100679
2.4668595000403,-1.33475795030594,0.36112637758255,0.0294512557983398,1.38306125061723
2.47682950005401,-0.68256945669651,-0.255015200972557,0.418832256495953,0.840448853306098
2.4867985000601,0.054238772392273,-0.338945549726486,0.842513608932495,0.909755522844719
2.49676850007381,0.0770049065351486,-0.913374845981598,2.12071056514978,2.31032393097598
2.50673850008752,0.359486818313599,-1.08794814705849,2.64566569268703,2.8831248500005
2.51670750009362,0.76155598461628,-0.962076305150986,1.09481394767761,1.644437871939
2.52667749999091,0.714214587807655,-0.810718789100647,0.916508661210537,1.41681175831936
2.53664750000462,0.0748127853870392,-0.952249474525452,1.73505424082279,1.98060324981772
2.54661750001833,-0.264111714363098,-1.82257594943047,2.18140875667334,2.85483489063681
2.55658650002442,1.08723654091358,-1.87879985153675,1.61687558054924,2.70670626795903
2.56655650003813,0.724495162367821,-2.30238092422485,1.85405092656612,3.04357618580997
2.57652650005184,0.466928821206093,-1.81310696840286,2.41385692119598,3.05484609087752
2.58649550005794,0.78908818423748,-0.84998342692852,2.65441488146782,2.89673097672431
2.59646550007165,-0.136323155164719,-0.127086893320084,1.66690377295017,1.6772904546808
2.60643550008535,-0.4574007833004,-0.260046145319939,-1.14115956366062,1.2566163392196
2.61640550009906,0.42232918381691,0.704904066324234,-4.61390981733799,4.68651421471778
2.62637449998874,0.518370285630226,1.52833821058273,-6.07028692960739,6.28115505673231
2.63634450000245,-0.14677271425724,1.63545569300652,-6.69444679498673,6.89288585748712
2.64631450001616,-0.657831641435623,1.07682966649532,-1.65519238471985,2.08133765390263
2.65628350002226,-2.04502976059914,0.0277222341299057,1.30365178629756,2.42537073947843
2.66625350003596,-1.62994703114033,0.341977915763855,0.758182872086763,1.82989548519009
2.67622350004967,-0.65879643201828,1.28911750853062,0.472303435653448,1.52279585794362
2.68619350006338,-0.717306010723114,1.78418956339359,0.147179826647043,1.92860628758541
2.69616250006948,-0.912634003758431,1.93828883886337,0.0548622317612171,2.14309923058926
2.70613250008319,0.041375775039196,2.99246522247791,0.00708024725317955,2.9927596282363
2.7161025000969,0.048899972140789,2.95741935074329,0.784231925457716,3.06002289800802
2.72607150010299,0.086687895655632,1.806297301054,1.46091513633728,2.32475757158194
2.73604150000028,1.05940262496471,2.19858173668385,2.44578739643097,3.45513698182901
2.74601150001399,2.50295796275139,2.93878953695297,4.49719003736973,5.92671922213482
2.7559815000277,2.51635451853275,2.46768989682198,6.66126384615898,7.53617738100439
2.7659505000338,2.86998651981354,3.07797841250896,6.12126120150089,7.42836539413502
2.77592050004751,4.25814182817936,4.55994001686573,5.31545348882675,8.19627174867846
2.78589050006121,4.57485567927361,4.11274437904358,3.73329516649246,7.19593382499398
2.79585950006731,4.51325701653957,3.77176048994064,2.13231290280819,6.25639068523564
2.80582950008102,3.87317518293858,2.39997855484486,1.98090217709541,4.96843602119096
2.81579950009473,2.1580008906126,0.259067906141281,-0.153753138575703,2.17892727081449
2.82576949999202,-0.499410104155541,-1.7663315820694,-2.92569352805615,3.45384138750726
2.83573849999812,-3.10258291125298,-2.80406617999077,-4.68639833450317,6.28101402741636
2.84570850001182,-2.87277154862881,-4.33600627541542,-6.42863003253937,8.2692835775731
2.85567850002553,-1.05275843381882,-4.78806679666042,-6.63087820529938,8.24635857471484
2.86564750003163,1.10600201010704,-4.72290250182152,-4.89959366440773,6.8945679026591
2.87561750004534,2.25012903571129,-4.25469021677971,-2.05556293487549,5.23362288451756
2.88558750005905,1.79385910391808,-4.27627989113331,-0.0123236099816859,4.63731086551073
2.89555650006514,2.00001029312611,-3.7081883919239,1.26875224113464,4.40004938290399
2.90552650007885,1.63317527890205,-3.93525448679924,1.9623244035244,4.69086414556612
2.91549650009256,-0.196900309324265,-2.86495499074459,1.29857537984848,3.15167175447459
2.92546649998985,-1.39227642595768,-1.10907296776772,1.62186325550079,2.40809404169651
2.93543549999595,-2.45124869585037,-0.0757804995775223,1.22034898996353,2.73927262431642
2.94540550000966,-2.58031194806099,0.936609342098236,0.164566339664161,2.74996888876264
2.95537550002337,-0.844198776483536,1.94105340242386,-0.341375616006553,2.14403759213345
2.96534450002946,1.18529610157013,1.93259715914726,-0.482863068580627,2.31797656824665
2.97531450004317,1.40121974229813,1.2269651144743,-1.07054332494736,2.14823722361668
2.98528450005688,0.215989129543304,-0.49667068362236,-1.26177768230438,1.37310450862715
2.99525450007059,-1.31471018671989,-2.4822699290514,-0.73779692016542,2.90421610269337
3.00522350007668,-1.74898464739323,-3.23051823556423,-0.702724224328995,3.74018939394639
3.01519350009039,-0.441297551393509,-2.68005550682545,-1.30085228562355,3.01158724222682
3.0251635001041,0.0774013477563858,-2.36558640182018,-1.81035292983055,2.97982679423773
3.03513249999378,-0.0921141117811203,-2.27727298021317,-2.54107830047607,3.41343465810444
3.04510250000749,0.324734476804733,-2.18191307902336,-2.99463044643402,3.71940972138705
3.0550725000212,0.722059797048569,-2.23478243350983,-3.11908960103989,3.90440044244351
3.06504250003491,0.4878016269207,-2.81961509585381,-3.37577885985374,4.42538841534035
3.075011500041,1.35132662057877,-2.92087600708008,-3.3153379458189,4.62050494851024
3.08498150005471,1.91466024041176,-2.61111624956131,-1.76453648686409,3.68747080238087
3.09495150006842,0.849371223449707,-2.19136042535305,0.64662011705339,2.43754170524447
3.10492050007451,-0.84953202188015,-2.68335450589657,2.19695796489716,3.57053502434022
3.11489050008822,-2.48025848686695,-2.99881939172745,2.82110204279423,4.80658055604334
3.12486050010193,-2.43142780423164,-2.74247219502926,3.62548829734325,5.15530409402512
3.13483049999923,-1.41458063006401,-2.16456906795502,3.86818575382233,4.65287638294571
3.14479950000532,0.913279536366463,-0.0907335841655731,2.88157979428768,3.0242047228467
3.15476950001903,3.14662004649639,2.96573759973049,2.3824379311502,4.93688441461327
3.16473950003274,3.47428982555866,3.05558883905411,2.82124588429928,5.41910890137928
3.17470850003883,0.926662058830261,2.28436565279961,4.27437019050121,4.93429524171502
3.18467850005254,0.900772926807404,2.29862584233284,3.75918780684471,4.49739542355789
3.19464850006625,0.567147758603096,1.29839353144169,1.801892593503,2.29222583117351
3.20461850007996,-0.0676692420244217,0.891638406515122,-0.0557276196777821,0.895937353771979
3.21458750008605,-1.32761616110802,2.37831988334656,-1.75360628664494,3.23946062598659
3.22455750009976,-2.19295379161835,2.34766644001007,-2.26303895696998,3.92962203863
3.23452749999706,-1.90113036811352,1.50455583035946,-2.1839818239212,3.26309079408622
3.24449650000315,-1.24318353652954,1.46878314971924,-1.93720418035984,2.73049249821363
3.25446650001686,-1.94391152143478,0.404549555182457,-1.53928639099002,2.51234053011376
3.26443650003057,-1.27874045491219,-0.164948199391365,-0.877534922361374,1.55963220006361
3.27440650004428,0.0850348877906799,-0.410887352228165,-1.06339861214161,1.14318675493873
3.28437550005037,0.943105598688126,0.515411594510079,-0.543315238505602,1.20427934069497
3.29434550006408,2.37175053656101,1.5858175098896,0.0676357667148113,2.85387322410948
3.30431550007779,1.57437450885773,0.779291174411774,0.927229677289724,1.9863797983024
3.31428450008389,-0.208902304172516,-0.22958975315094,1.0952869874239,1.13842224691044
3.3242545000976,-1.03644236326218,-0.597524628639221,0.539286360740662,1.31227978460229
3.33422449999489,-0.232057862877846,-0.544516695141792,-0.33477897003293,0.680019295158514
3.3441945000086,-0.441423851251602,-1.18458566486835,-0.198765571117401,1.27968979292914
3.35416350001469,-0.233168249130249,-0.585187588334084,-0.60954197242856,0.876557677563106
3.3641335000284,0.180147451758385,0.088063160777092,0.0160101149976254,0.201158018590681
3.37410350004211,0.326009754538536,-0.258162757158279,0.739093320965767,0.848050297054395
3.38407287502196,0.0331706696748734,-0.173923090696335,0.320413822978735,0.366079981370046
3.39404287503567,1.05410504758358,0.922210573554039,1.5327974434197,2.07631351097805
3.40401287504938,1.59761894524097,1.49150893807411,1.71798490270972,2.78001031157915
3.41398287506308,0.326306793093681,0.37664664208889,0.512743363827467,0.715013687536837
3.42395187506918,-1.58784298539162,-1.39348738431931,-0.948304211944342,2.31567124499697
3.43392187508289,-1.28772411704063,-0.522388492226601,-1.61944323912263,2.13394459702188
3.4438918750966,0.805128266215324,0.899650846123695,0.0188338816165924,1.20745926850007
3.45386087510269,1.58747110247612,1.21017074167728,0.597027615308762,2.08351138673389
3.46383087499999,1.33328503668308,0.472567291259766,1.04115039512515,1.75640626823092
3.47380087501369,0.927020493149757,0.23526798427105,1.25887746334076,1.58097769966874
3.4837708750274,0.596285018920899,-0.0669143664836884,0.351565595269203,0.695436355109796
3.4937398750335,0.847927545905113,-0.702548223137856,0.259093487709761,1.13123143711286
3.50370987504721,-0.164535385966301,-1.08780021250248,0.114573413282633,1.10612307750392
3.51367987506092,-0.420236465334892,-1.09245518088341,-0.0509017664194107,1.17160061405787
3.52364887506701,0.214603924155235,-0.591273955106735,-0.473678262233734,0.787420364457993
3.53361887508072,0.812036166787148,0.375761958360672,-1.04265502989292,1.37394661354887
3.54358887509443,0.556695860624313,0.814816517829895,-0.873264700770378,1.31773573852129
3.55355887499172,-0.215099183320999,0.631802176237106,0.0204330950975418,0.667726860279388
3.56352787499782,0.264084817171097,0.982157982587814,1.28620778784156,1.63972728431454
3.57349787501153,0.606275571584702,-0.190900481343269,1.5714473927021,1.69512830502817
3.58346787502524,0.769225192666054,-0.919173529744148,-0.139038017392159,1.20661466305312
3.59343687503133,0.64493677675724,-0.242939531207085,-1.37819501504302,1.54090381313259
3.60340687504504,-0.0819990134239197,1.07131457269192,-0.566558943986893,1.21467188527442
3.61337687505875,-1.4413912832737,1.52369142830372,-0.378257550001144,2.13127266540827
3.62334687507246,-0.815545665621758,0.514570764899254,-0.0779036235809326,0.967453760843627
3.63331587507855,0.687497490048409,0.0459573608636856,-0.157036331892014,0.706700281147896
3.64328587509226,0.245545927584171,-0.156934005618095,-0.29337147384882,0.413506839533206
3.65325587498955,-0.666390210986137,-0.925019575953484,0.490996984094381,1.24129576152708
3.66322587500326,-0.745582560896874,-1.19666952073574,1.06635437965393,1.76777344701706
3.67319487500936,-0.360423834621906,-1.16002385079861,0.828090793713927,1.47013436039668
3.68316487502307,-0.00723505228757858,-0.781450551152229,0.662750830873847,1.0246735937369
3.69313487503678,0.493246261775494,-0.394177179336548,1.06120700262487,1.23483919029373
3.70310387504287,0.622328809797764,-0.443157550692558,0.98372781381011,1.24555295909237
3.71307387505658,0.378219543099403,-0.599710902571678,0.950846727490425,1.18609134919066
3.72304387507029,-0.0895685264468193,-0.898993619084358,0.973417637720704,1.32806398396689
3.733013875084,-0.090676281452179,-0.416674926280975,0.636727212890983,0.766330037154469
3.74298287509009,0.312096304893494,0.43916565656662,0.134086010456085,0.555202337563336
3.7529528751038,0.413796926736832,0.425324712395668,-0.220374541282654,0.633003906778501
3.7629228750011,-0.0122899702191353,-0.257258777618408,-0.211286798715591,0.333129454328475
3.77289187500719,-0.518626686036587,0.0754472082853317,-0.0220621293783188,0.524549957830566
3.7828618750209,-0.537556754350662,0.65596228659153,0.0794314279407263,0.851799939729459
3.79283187503461,-0.199121081829071,0.672629190087319,-0.140939568467438,0.715502057681241
3.80280187504832,-0.260646362006664,0.278603453636169,-0.157155066914856,0.412618619868667
3.81277087505441,-0.324635658860207,-0.0689866197109223,0.735451675057411,0.806868409994772
3.82274087506812,-0.431874471008778,0.205065945982933,1.32167948305607,1.40549075302627
3.83271087508183,-0.498805794417858,0.261437782645226,0.83749903678894,1.00923811430291
3.84268087509554,-0.449683628082275,0.565679522752762,-0.140851238965988,0.736238928164821
3.85264987510163,-0.00862201184034348,1.1008997297287,-0.987564318180084,1.47896512350609
3.86261987499893,0.308611656725407,1.36873495101929,-1.56667021751404,2.10312436419106
3.87258987501264,0.0606151610612869,1.00603684186935,-1.5497366809845,1.84863952823091
3.88255887501873,-0.254451237022877,-0.0210394513607025,-0.934447041749954,0.968699831924871
3.89252887503244,-0.105714735388756,-0.645034425258637,0.397324150800705,0.76492581068791
3.90249887504615,0.326138978004456,-0.168277019262314,1.61353097319603,1.65474045990558
3.91246887505986,0.111782683432102,0.45049989938736,1.38508142709732,1.46078611964697
3.92243787506595,0.0755115276575089,1.0729669958353,0.807411677017808,1.34494378363771
3.93240787507966,0.535010876655579,0.964943779706955,-0.617387766391039,1.26432621985951
3.94237787509337,0.147649504244328,0.2726889950037,-2.97655202507973,2.99266129425065
3.95234687509947,-0.251150776147842,0.589672402739525,-2.12696109250188,2.22143056248199
3.96231687499676,0.154223528802395,0.781847577095032,0.0231399174034596,0.797249011553526
3.97228687501047,0.496895362883806,0.213954883217812,-0.19852919742465,0.576277308193072
3.98225687502418,-0.326050685048103,-0.421494786143303,-2.51474127173424,2.57058175667102
3.99222587503027,-0.415197919607163,0.190057897567749,-1.81740116357803,1.87388855224871
4.00219587504398,0.364688355177641,0.397139963507652,0.4568758495152,0.706720092318924
4.01216587505769,0.94597585067153,0.105041720867157,1.42936604574323,1.71726275389065
4.0221358750714,0.831396005451679,-0.482112286090851,0.888580605089665,1.30890300099827
4.03210487507749,-0.309296804219484,-0.726274470090866,-0.361140703260899,0.868079331949523
4.0420748750912,-0.653742537349463,-0.26807612657547,-0.801109182536602,1.06818539454735
4.0520448749885,0.0550604523718357,0.20775040268898,0.138411926776171,0.255635961294018
4.06201387499459,0.448303539007902,-0.163882251977921,0.243837371170521,0.535994514132108
4.0719838750083,-0.0591670981049538,-0.181401094794273,-0.310446220636368,0.364395332843502
4.08195387502201,-0.324828324615955,0.438754597306252,-0.0128599275648594,0.546062647383204
4.09192387503572,-0.199964688867331,0.412273142337799,0.12138366535306,0.474013728600169
4.10189287504181,-0.127318077608943,0.343842592835426,0.0454610784351826,0.369464925515691
4.11186287505552,-0.233329632282257,0.371805732250214,0.153179508447647,0.464915241354114
4.12183287506923,-0.26300191283226,0.317868676185608,-0.249762647151947,0.482277805176401
4.13180187507533,-0.457299187928438,0.000513385534286499,-0.201457336843014,0.499707784022418
4.14177187508903,-0.430365523919463,-0.0526728880405426,0.089959558993578,0.442811065317167
4.15174187510274,-0.257702800557017,-0.376370653510094,0.237992348223925,0.514495830937125
4.16171187500004,-0.0824810432642698,-0.594802165031433,0.430420853197575,0.738819902879836
4.17168087500613,-0.475431403666735,-0.716946406960487,0.593740749210119,1.04526324307261
4.18165087501984,-0.286929815635085,-0.534656535387039,0.749931281358004,0.964667433207794
4.19162087503355,0.194228204861283,-0.44125194311142,0.482206133902073,0.681872882901222
4.20159087504726,0.206425642892718,-0.626923844218254,0.345427480638027,0.744959862591939
4.21155987505335,0.20393604464829,-0.977890684604645,0.388409631997347,1.0717845602413
4.22152987506706,0.487255643159151,-1.02043151736259,0.656385917365551,1.30749417434005
4.23149987508077,0.615928739905357,-1.00360732376575,0.478222718238831,1.2709417143195
4.24146887508687,0.469276185929775,-0.486042784452438,0.170764424800873,0.696863125568177
4.25143887510058,-0.0272946564853191,-0.143255614042282,0.0651939694583416,0.159741738068102
4.26140887499787,-0.271903567761183,-0.0992939078807831,-0.102974291592836,0.307236936309006
4.27137887501158,-0.594232646226883,-0.231734511852264,-0.123345844745636,0.649636451595218
4.28134787501767,-0.747320645749569,-0.141337142586708,0.35572004199028,0.839643426528008
4.29131787503138,-0.691287801414728,-0.0549421924352646,0.763600902110338,1.03149590721346
4.30128787504509,-0.617133997231722,-0.292499361634255,0.951206477433443,1.17098420561807
4.3112578750588,-0.296732453405857,-0.588912264704704,0.618233127593994,0.903924778108519
4.3212268750649,0.14377250790596,-0.58417192697525,-0.00784696340560913,0.601655174606049
4.3311968750786,0.153927221149206,-0.27044775724411,-0.0966017767041922,0.325833518950234
4.34116687509231,-0.375530847162008,-0.112393425107002,0.279016413241625,0.481150556516066
4.35113587509841,-0.576066516637802,0.091871452331543,0.645641512423754,0.870141343638808
4.3611058749957,-0.781094163358212,0.182081125974655,1.04623776510358,1.31828490456251
4.37107587500941,-1.15958867177367,0.145525503158569,1.50664153218269,1.90677535810415
4.38104537501931,-0.981390827894211,-0.000801068544387817,1.18892020583153,1.54164193463339
4.39101437502541,-0.420812269896269,-0.132398504018784,-0.0613583056256175,0.445395523137479
4.40098437503912,-0.108751194477081,0.570233334302902,-1.1233273100853,1.26445922173626
4.41095437505283,0.057502980530262,1.01518481075764,-1.81895886182785,2.0838709494076
4.42092437506653,-0.11208776190877,0.800641697645187,-2.21537903308868,2.35828222539772
4.43089337507263,0.119055304080248,0.58085187792778,-1.96097486615181,2.0486545573134
4.44086337508634,0.419550002217293,0.206635338664055,-1.31546798586845,1.39612907332744
4.45083337510005,0.462391381859779,-0.326526063680649,-0.78642009973526,0.968959046373268
4.46080237498973,0.34963045924902,-0.299987890720367,-0.132595555186272,0.479391044835728
4.47077237500344,0.125609740465879,0.259873652458191,0.780559435486794,0.832217011643795
4.48074237501714,-0.523416725099087,-0.220745839476585,0.45934673666954,0.730543098145915
4.49071237503085,-1.53122161880136,-0.452195591926575,-0.989767549037933,1.87849948106754
4.50068137503695,-2.96339608222246,-0.142732872962952,-2.85612394094467,4.11819535466605
4.51065137505066,-2.05072465628386,0.789142563343048,-2.81162721455097,3.56839812727978
4.52062137506437,-1.31758862480521,0.778046302199364,-1.76864181697369,2.33869401789336
4.53059137507808,-0.39617795035243,0.0521811372041702,0.213012969866395,0.452829288757557
4.54056037508417,0.00047260120511055,-0.79267895936966,1.43840160191059,1.64235785514553
4.55053037509788,0.44931744620204,-1.25584685146809,2.55412109971046,2.88141841352311
4.56050037499517,-0.663528145104647,-1.12933766305447,3.58022558569908,3.81230749035721
4.57047037500888,-1.36522150531411,-0.825036281347275,2.89199251592159,3.30274663518986
4.58043937501498,-0.392266309261322,-0.515480591654778,1.26032391831279,1.41704251059224
4.59040937502869,1.30120297238231,0.826072992682457,-0.924898026958108,1.79748772592385
4.60037937504239,1.68675302356482,1.79099045991898,-1.89750509440899,3.10697733711302
4.61034837504849,0.765743468105793,0.931740950345993,-1.5900052857399,1.99565053708788
4.6203183750622,-0.0721569800376892,0.00489587366580963,-1.28269258797169,1.28472988389958
4.63028837507591,-0.61203054741025,-0.615894826054573,-0.781048920527101,1.16788066341584
4.64025837508962,-0.690559969246388,-1.17041142940521,-0.818416648507118,1.58636118074086
4.65022737509571,-0.575002177208662,-1.65044736921787,-1.01440252639353,2.0207960084844
4.660197374993,0.027944720685482,-1.10428409814835,-0.787801796793938,1.35678146651156
4.67016737500671,0.297894295156002,-1.26761086463928,-0.893715922236443,1.57933734993413
4.68013637501281,0.546971210092306,-0.652419458627701,-1.95667365431786,2.133869828309
4.69010637502652,0.393133451342583,0.127255293130875,-1.54494839608669,1.59925400320437
4.70007637504023,0.479565385133028,0.137333554029465,-0.114293185472488,0.51176791216879
4.71004637505394,0.602322122901678,0.113421365618706,0.377516196146607,0.719843610979913
4.72001537506003,0.0765004380047321,0.394240329265595,0.645757141113281,0.760447262821794
4.72998537507374,-0.314850782006979,0.730922421813011,0.789226105436683,1.12082846463772
4.73995537508745,0.293747595995665,1.40880591988564,0.48654447555542,1.51912714963282
4.74992537510116,0.239914912730455,1.06361554384232,0.0972309371083975,1.09466480969492
4.75989437499084,-0.309932250380516,0.575378884077072,-0.935722977295518,1.14135724044074
4.76986437500455,-0.902396844774485,-0.0934841144084931,-1.50997049823403,1.76155336298473
4.77983437501825,-0.805846304297447,-0.663292940855026,-0.967623704820872,1.42325030323876
4.78980437503196,-0.148251328915358,-0.616743257045746,0.7539440792799,0.985282891517852
4.79977337503806,0.252462745159864,-0.185840885639191,2.2104591858387,2.23257790115541
4.80974337505177,0.295952288657427,0.0433512568473816,2.17113256752491,2.19163950375036
4.81971337506548,0.117071489989758,-0.230878479480743,1.07613311693072,1.10683019990006
4.82968237507157,-0.140090077668428,-0.468598785996437,0.124325691908598,0.504645350485896
4.83965237508528,0.335053204447031,0.573065140843391,-0.349334882497788,0.750132765308797
4.84962237509899,-0.193538891226053,-0.0340237784385681,-0.478913274407387,0.517660935671074
4.85959237499628,-0.594379265159369,-0.971925939917565,-0.957698933333159,1.48832590195948
4.86956137500238,-0.168475532233715,-0.640639073252678,-0.808821367621422,1.04546374009837
4.87953137501609,0.177671740651131,0.289037809967995,-0.337476290613413,0.478539809987932
4.8895013750298,0.503800339847803,1.31051422476769,-0.0163513000309467,1.40411170522929
4.8994713750435,0.539774749428034,1.597251740098,0.268650761693716,1.7072618818227
4.9094403750496,0.418054576814175,1.33361481964588,0.422376473173499,1.46003424667536
4.91941037506331,0.0388860306143761,0.742992829084396,0.401691363081336,0.845521388624746
4.92938037507702,0.00535999640822411,0.376832583546639,0.0584393390268087,0.381374726391014
4.93935037509073,-0.0665307891368866,0.320450806617737,-0.113528442755342,0.346415606864916
4.94931937509682,0.0198233766853809,-0.0409176456928253,-0.212612874135375,0.217419995033481
4.95928937499411,-0.020296708792448,-0.745792475938797,0.0367292851209641,0.746972164099991
4.96925937500782,-0.0969333869218826,-0.624019532203674,0.412680108547211,0.754388050052742
4.97922837501392,0.147228650897741,-0.107632622122765,0.477838629260659,0.511459492632502
4.98919837502763,0.359929306358099,-0.0420537596940994,0.34854777418077,0.502795361122396
4.99916837504134,0.137530020475388,-0.13355274438858,0.0931379592418671,0.213132638320417
5.00913837505505,-0.157755393236876,-0.328695380687714,-0.266865168213844,0.451823455994225
5.01910737506114,0.157273875027895,-0.371803978085518,-0.438221989050508,0.5958286511858
5.02907737507485,0.382713566869497,0.115665526986122,-0.0958909014612436,0.411148699842284
5.03904737508856,0.0199192710220814,0.35008741915226,-0.272725247740746,0.444226337762623
5.04901737510227,0.14229360088706,0.474263568520546,-0.59715164937079,0.775734164276334
5.05898637499195,0.137761570215225,0.0870246952772141,-0.790616134777665,0.807233188358253
5.06895637500566,0.195623277425766,-0.148438585996628,-0.99703914642334,1.02683471892221
5.07892637501936,0.294837516993284,-0.332415964007378,-0.615457527413964,0.759089917338012
5.08889637503307,0.330571313649416,-0.226748591065407,-0.197313707470894,0.446794154073167
5.09886537503917,-0.14195592418313,0.335521420240402,0.692696761116386,0.782658872505739
5.10883537505288,-0.264787213951349,0.744007321000099,1.47016133844852,1.66884197078172
5.11880537506659,-0.402560040056706,0.665000327825546,1.18516738973558,1.41735731682282
5.12877437507268,-0.226852086782455,0.42180878162384,0.37714533649385,0.609608991380215
5.13874437508639,-0.025817503631115,0.489168121218681,-0.00901940323412418,0.489931978896108
5.1487143751001,0.193904926925898,0.546280800104141,-0.00629394292831421,0.579708070468355
5.15868437499739,0.431845234930515,0.455184688568115,-0.00631557762622833,0.627473739816892
5.16865337500349,0.119489898383617,0.773539268374443,0.284584131985903,0.832843901167059
5.1786233750172,0.00210353583097458,0.899367840886116,0.31254003547132,0.952128253889969
5.18859337503091,0.263056584298611,0.557677023410797,0.732981080263853,0.957843250750322
5.19856337504461,0.427963853180409,0.231056819558144,0.953359129875898,1.07024947746359
5.20853237505071,0.110411511361599,0.424053527712822,1.14772584065795,1.22853030142559
5.21850237506442,-0.134138343036175,1.59733535528183,1.26514026984572,2.04207082019482
5.22847237507813,-0.00714705169200897,2.95385021030903,0.351255692839623,2.97467018458229
5.23844237509184,-0.578767637908459,3.72254915356636,-0.502961118221283,3.80069915487272
5.24841137509793,-1.9845634111762,3.38572205007076,-1.04492374956608,4.06121550471308
5.25838137499522,-2.11820620268583,2.44854669749737,-1.5326745057106,3.58207615599909
5.26835137500893,-0.238130196332932,1.51812721788883,-1.85277111724019,2.4071096886058
5.27832037501503,0.91639756411314,0.0327765673398972,-1.51734895348549,1.77290909116136
5.28829037502874,-0.0855702003836632,-0.139228636622429,-0.250703464150429,0.299264263463692
5.29826037504245,-0.407644486427307,0.108787447214127,-0.761218600273132,0.870323212023979
5.30823037505616,-0.362833179831505,-0.334741401672363,-1.32375699877739,1.41281007718389
5.31819937506225,-0.929336282908917,-0.938697382807732,-0.991480490863323,1.65162110273017
5.32816937507596,-1.11876034229994,-0.759828717112541,-0.658422356396914,1.50415570412615
5.33813937508967,-0.0053849932551384,0.0728814500570297,-0.132909843027592,0.151676399905827
5.34810937510338,-0.00371152013540268,-0.521272258758545,0.429118093550205,0.675189515132688
5.35807837499306,0.262126292288303,-0.622796879410744,-0.351507415473461,0.761671588839577
5.36804837500677,0.766486064493656,-0.588286612629891,-0.11639525949955,0.973205981330002
5.37801850005053,1.10073863893747,-0.311317455768585,0.426566953361034,1.22086177563877
5.38798850006424,1.24594663828611,-0.143300052881241,0.379593931138516,1.31034708500055
5.39795750007033,1.59951051950455,-0.250756089091301,-0.16018096446991,1.62695127757428
5.40792750008404,0.281380588710308,-0.390716212391853,0.516103612482548,0.70583081056747
5.41789750009775,0.231364090740681,-1.85133255600929,0.967837274372578,2.10182553155325
5.42786749999505,-0.131337234377861,-2.66782430112362,0.909649000167847,2.82170113128696
5.43783650000114,2.28478519052267,-0.414010350108147,-0.267706874907017,2.33737350624603
5.44780650001485,2.73193843603134,1.07321199417114,-0.760108798742294,3.03200214192267
5.45777650002856,3.05019565969706,0.500152700543404,-1.89367019802332,3.62489077148227
5.46774650004227,1.6139756539464,0.286994792819023,-1.19272352725267,2.0272821301188
5.47771550004836,-0.0519495874643326,-1.42761290431023,-0.0546550941467285,1.42960293211331
5.48768550006207,-0.317262904644012,-2.72841373443604,-0.34447379976511,2.76831346773572
5.49765550007578,0.297958029806614,-1.81061605453491,-0.0552222740650177,1.83579927661461
5.50762450008187,0.834336862564087,-1.01642851352692,0.403333919048309,1.37547198212057
5.51759450009558,1.05462398797274,-0.825107617378235,0.736512067615986,1.52822915886561
5.52756449999288,1.12707946836948,-0.42911078453064,1.64885283350945,2.04283133420081
5.53753450000659,1.71919922322035,-0.712249338626862,1.63943413853645,2.48005834288119
5.54750350001268,0.279574676156044,-0.0175042247772217,2.10321101814508,2.12178344424677
5.55747350002639,0.0974350780248642,-1.30877058506012,0.617596950531006,1.45044821763947
5.5674435000401,0.119877861142159,-0.586390945315361,-0.606279664635658,0.85193900843346
5.57741350005381,-0.396270482540131,0.379021781086922,-0.961757193356753,1.10709742337535
5.5873825000599,0.374815878868103,0.701665878295898,0.562299685925245,0.97416779078763
5.59735250007361,0.293812646269798,0.947747703194618,2.04457426249981,2.27262744304811
5.60732250008732,1.08919652760029,0.885490059256554,1.54230486989021,2.08546062836625
5.61729250010103,0.78017118036747,1.74229133963585,2.52998554766178,3.16939632331199
5.62726149999071,1.06300567924976,-0.326383391618729,0.903687032908201,1.43288431001537
5.63723150000442,0.000159628987312317,-1.55072076737881,-1.14133790373802,1.92545764283986
5.64720150001813,-0.590799161195755,-2.06825314700604,-1.62429160416126,2.69537343318486
5.65717150003184,-0.569146921634674,-2.32099319636822,-0.296820892542601,2.40811965613081
5.66714050003793,-1.39827508449554,-2.25846190273762,-1.26085966944695,2.94033849821345
5.67711050005164,-0.816197630167008,-1.2486354804039,-1.53631571307778,2.1413862576993
5.68708050006535,0.271182752251625,0.20403800547123,-1.35822121873498,1.3999773111795
5.69705050007906,0.655947083830833,0.584398798942566,-2.00156974554062,2.18587968087341
5.70701950008515,0.367865293622017,1.11569435477257,-1.63249188557267,2.01125048762794
5.71698950009886,0.519992887973785,1.11453309774399,-0.845306166037917,1.49235355859523
5.72695949999616,0.746470168232918,1.23470098078251,0.746290000900626,1.62439311419718
5.73692950000987,0.392519493699074,0.800045281648636,0.530972643345595,1.03734080880077
5.74689850001596,-0.0355142337083817,0.272998897433281,0.581109667047858,0.643022630964225
5.75686850002967,-0.162697021365166,0.343503454327583,0.375792363882065,0.534494943519721
5.76683850004338,0.410291520953178,1.1202534288168,0.39171835206449,1.25568712037911
5.77680850005709,0.394860718846321,1.40700263857842,0.0940804573148489,1.46438469832999
5.78677750006318,0.201151235103607,0.765388834476471,-0.0678774029016495,0.794285357506753
5.79674750007689,-0.14597690820694,0.12845397233963,0.362382944226265,0.41125549115554
5.8067175000906,-0.081179233789444,-0.0895483535528183,0.282428629025817,0.307204990382748
5.81668749998789,0.272851547598839,-0.28367883682251,0.389985748976469,0.554085312828982
5.82665649999399,0.375834463834763,-0.444685428142548,0.345279838442802,0.676915682373641
5.8366265000077,0.481583113074303,-0.581918994784355,-0.0564666346460581,0.757456594213439
5.84659650002141,0.464462465643883,-0.542933269143105,-0.851841014251113,1.11181609553684
5.85656650003512,0.620650951266289,-0.483523219227791,-1.24002253174782,1.46855649740908
5.86653550004121,0.882986281514168,-0.0222194194793701,-1.17517866432667,1.47010318312451
5.87650550005492,0.763206068873406,0.147507709264755,-0.741060982123017,1.07397085951289
5.88647550006863,0.209089415073395,-0.0185526305437088,0.0429242639243603,0.214254698966613
5.89644550008234,0.37546082675457,0.0579956084489822,0.458901178836823,0.595755499315297
5.90641450008843,0.493979794979096,0.399166608452797,-0.0282543307542801,0.635726612906578
5.91638450010214,0.434910053014755,0.496986433267593,0.770883024483919,1.01508763488815
5.92635449999943,-0.494779109358788,-0.293988647460938,1.8615131431818,1.94845243055415
5.93632450001314,-0.739627756476402,-0.663193538188934,1.86131916180253,2.10983030344603
5.94629350001924,-0.11715539753437,0.630801717638969,1.49121423840523,1.62337799017056
5.95626350003295,0.850704973340035,2.30656753063202,0.860680907964706,2.60475034319343
5.96623350004666,0.971336540579796,3.23812312424183,0.533449012264609,3.4224996554421
5.97620250005275,0.0633206677436829,1.94140189647675,0.693343463167548,2.06246842121866
5.98617250006646,-0.554235936999321,0.627141360640526,0.229438968077302,0.867828324128651
5.99614250008017,-0.511557109951973,0.603691686987877,-0.205342007651925,0.817495975395113
6.00611250009388,-0.13455905020237,0.867609858512878,-0.244586691856384,0.911414096014183
6.01608150009997,0.0389214062690735,0.530931274294853,0.44746636390686,0.695434425893877
6.02605149999727,0.193113652467728,0.385319232344627,0.57115302823484,0.715527480426787
6.03602150001098,0.593202951550484,0.536859766244888,0.0459666433185339,0.80138697433805
6.04599150002468,0.590096325874329,0.387199112176895,-0.416893027424812,0.819717404107283
6.05596150003839,0.539159476161003,0.330837215781212,-0.84447951592505,1.05512646488328
6.06593050004449,0.224945894479752,-0.0944015425443649,-1.10971791565418,1.1362157185156
6.0759005000582,-0.620344264805317,-0.399866520166397,-1.23373443603516,1.43764421867367
6.08587050007191,-1.26446272373199,-0.322550541758537,-0.956798023581505,1.61813698110696
6.095839500078,-0.677115466296673,0.0740362751483917,-0.35292156457901,0.767150803610936
6.10580950009171,-0.194640360474587,0.480220127105713,0.425490188598633,0.670476055498483
6.115779499989,-0.055916630923748,0.673930780291557,0.859855281114578,1.09391977342897
6.12574950000271,0.045051334798336,0.130221000909805,0.360797764062882,0.386215171112992
6.13571950001642,-0.542752882540226,-0.612806326746941,-0.0240765317156911,0.818957852997491
6.14568850002252,-1.20558330863714,-0.831423779726028,-0.647744024991989,1.60133348727591
6.15565850003623,-2.05477326840162,-0.632105646729469,-0.652603061199188,2.24667342723675
6.16562850004993,-1.31914939284325,-0.999207878708839,-1.17351052679122,2.02871842846717
6.17559850006364,-0.803301596045494,-0.647065163254738,-1.20282846607268,1.58454507619754
6.18556750006974,-0.636519125103951,0.188339400887489,-0.755641599074006,1.0057944883528
6.19553750008345,-1.30866270393133,1.30000093102455,-0.459265972003341,1.90092759629759
6.20550750009716,-1.30439920663834,1.28684878885746,-0.524212238788605,1.90584248220004
6.21547749999445,-1.33121687650681,1.0379831045866,-0.495528137683868,1.75928833138295
6.22544650000054,-1.803702891469,0.814483226537705,-0.488454176187515,2.03845886130673
6.23541650001425,-1.30053361237049,0.248547011017799,-0.752880397662521,1.52315205635412
6.24538650002796,-1.57072613865137,0.237854207754135,-0.799324831590056,1.77839124300179
6.25535650004167,-1.81387236893177,0.019067770242691,-1.26435045719147,2.21112609980445
6.26532550004777,-0.67737040489912,0.524787604808807,-1.66611045196652,1.87354122819495
6.27529550006148,2.38006761610508,0.469711511135101,-0.912629910707474,2.59195758353467
6.28526550007518,7.79028517484665,-0.0788976502418518,1.3624994802475,7.90892993889337
6.29523550008889,0.644221954643726,-6.24211964070797,-2.60935272932053,6.79616076927037
6.30520450009499,-3.28806331604719,-7.07985958278179,-1.20505033493042,7.89860230622851
6.31517449999228,-4.19918289095163,-2.21826521873474,-1.37735140800476,4.94478861362565
6.32514450000599,-1.02781684309244,-0.966443005800247,-2.10612731695175,2.53499345593142
6.3351145000197,0.700573910772801,-1.09756974041462,-1.9763647377491,2.36674475094958
6.34508350002579,1.27576188325882,0.172839601635933,-0.17834004085511,1.29971038344777
6.3550535000395,0.759056299924851,0.274160739183426,0.837463953495026,1.16304619459793
6.36502350005321,0.757186945080757,0.594806842803955,1.48958988189697,1.77369818917903
6.37499350006692,1.28331648588181,1.56416410088539,2.38050147950649,3.12414753674778
6.38496266666334,1.30558326780796,1.67791817307472,2.80964500844479,3.52335949601985
6.39493266667705,1.5018009147048,1.70650345623493,2.36942334473133,3.28355402271803
6.40490266669076,1.51765359342098,1.43358174204826,0.948950475454331,2.2932370234284
6.41487266670447,-0.0931166169047356,-0.350762187838554,-0.334521546363831,0.493568112566767
6.42484166671056,-0.772737322747708,-0.981261604428291,-1.20848031163216,1.73793612365214
6.43481166672427,-0.628307880163193,-0.606374974250794,-1.87855134487152,2.07157344957677
6.44478166673798,-0.449674272537231,-0.0940828692913056,-2.25647034108639,2.30276289224021
6.45475166675169,-0.275867541432381,-0.0471244651079178,-2.4954589086771,2.51110310033729
6.46472066675779,0.421114717125893,-0.0395874041318893,-2.3190232694149,2.35728099547629
6.47469066665508,0.521393880844116,-0.427852463722229,-1.34988177359104,1.50900301933699
6.48466066666879,-0.467774620950222,-0.878923051357269,-1.79974841952324,2.05679682997342
6.4946306666825,-0.579827738106251,-0.625060336589813,-2.55622843623161,2.69466221416605
6.50459966668859,-0.952104463577271,-1.03785563528538,-2.51311808466911,2.88086961467338
6.5145696667023,-0.701417079269886,-0.233352436423302,-2.43158567905426,2.54146575685331
6.52453966671601,-0.276957316249609,0.666306011080742,-1.76799496874213,1.90957462931513
6.5345086667221,0.035754554271698,1.22998286247253,-0.607075032144785,1.37210652821889
6.54447866673581,0.390011184364557,1.45024923026562,0.262407177910209,1.52452913413757
6.55444866674952,0.806882430911064,1.31252742111683,0.933193179443479,1.80128759465455
6.56441866676323,0.183145757764578,-0.0873410296440125,0.536404268145561,0.573498354776378
6.57438866666053,0.0594901567697525,-0.560078474879265,-0.982520656138659,1.13250775560908
6.58435766666662,0.159149515628815,-0.107268340587616,-1.68278714954853,1.69369644739043
6.59432766668033,0.211322612911463,0.224274634122849,-1.68723059490323,1.71513948080504
6.60429766669404,0.317406599968672,0.0146197932958603,-1.61680322125554,1.64772975463878
6.61426766670775,0.389715607613325,-0.216108412742615,-1.33937798157334,1.41156454985206
6.62423666671384,0.318063242286444,-0.513863836526871,-0.880929961949587,1.06829671273686
6.63420666672755,0.379816417694092,-0.986811781525612,-0.245897199064493,1.08559819261801
6.64417666674126,0.712754830420017,-0.927667779922485,0.436446701288223,1.24862831990098
6.65414666675497,1.12743161693215,-0.517582080960274,0.562462092339993,1.36211485077761
6.66411566676106,0.760126778930426,-0.135865902900696,-0.838998262882233,1.14025012551526
6.67408566665836,0.658757548034191,0.25793880879879,-1.69505109965801,1.83676132543899
6.68405566667207,0.524240305423737,0.799629544615746,-1.88605010658503,2.11457331653517
6.69402566668578,0.423730176687241,1.18874712824821,-1.84030821561813,2.23145722029919
6.70399466669187,0.286358908116817,1.0679869222641,-1.89198181450367,2.19139058061259
6.71396466670558,0.284447453320026,0.99705142557621,-1.86328251063824,2.13233290397961
6.72393466671929,0.341925290822983,1.11805312156677,-1.5845135807991,1.96917215471029
6.733904666733,0.645731998085976,1.18764726698399,-1.37931782662869,1.93131911163907
6.74387366673909,0.832320450246334,1.41230898678303,-1.82392431735992,2.45236088728866
6.7538436667528,0.417184511125088,1.57839096128941,-2.50238025784493,2.98785339296539
6.76381366676651,0.476126783788204,1.24659246325493,-2.775608073771,3.07972233535221
6.7737836666638,0.787225699871779,0.997997505068779,-2.21180755376816,2.55104213559243
6.7837526666699,0.599718211591244,1.16637451171875,-1.66066684037447,2.11610628032258
6.79372266668361,1.08422157034278,1.64010598361492,-0.55119216889143,2.04188561338124
6.80369266669732,0.907245063632727,1.53845155477524,-1.17380135267973,2.13722633509628
6.81366166670341,0.92570793941617,0.975862285494805,-1.97109084159136,2.38630289258397
6.82363166671712,1.53071174159646,1.34208509624004,-1.85412050843239,2.75354929158722
6.83360166673083,0.911679738163948,1.81212580561638,-2.01086535662413,2.85631569733294
6.84357166674454,1.03001159548759,1.82402196586132,-1.76378541201353,2.73841541742944
6.85354166675825,1.25959637850523,1.54220956027508,-1.40955641001463,2.43963985816773
6.86351066676434,0.874896658658981,1.29463026344776,-0.770775874257088,1.74229938033171
6.87348066666164,0.760147098004818,1.4154623901844,0.794308286011219,1.79228430832214
6.88345066667534,0.131524930000305,0.956060689687729,2.16450562566519,2.36990199230137
6.89342066668905,0.80317968159914,0.374481418132782,0.611113850176335,1.07647297752325
6.90338966669515,0.504859709143639,0.11934868812561,0.373560774028301,0.639277003470739
6.91335966670886,0.07506363093853,1.07241267979145,0.721199086904526,1.29453915638697
6.92332966672257,0.208053288459778,1.2121254658699,0.173515832126141,1.24203142466191
6.93329966673628,0.169274261891842,1.19546674847603,-0.0255535018444061,1.20766199903259
6.94326866674237,0.211021335124969,1.78490526258945,0.79917755484581,1.96700319381204
6.95323866675608,0.521482466161251,1.73952326774597,1.19614648729563,2.17454629304895
6.96320866676979,0.172465087473393,1.32710628390312,0.14870960444212,1.34650281901884
6.97317866666708,0.39184589445591,1.22125998616219,0.541804171800614,1.39232572316372
6.98314766667318,-0.212586927115917,1.41154241681099,1.86099274098873,2.34540810479753
6.99311766668689,-0.576191647052765,1.09680550932884,1.84822505325079,2.22506516463931
7.00308766670059,-0.763406628370285,0.37751261472702,1.82582378536463,2.01468060737203
7.0130576667143,-0.889830447435379,0.267142326235771,1.7219020986557,1.9565556687722
7.0230266667204,-0.869935296177864,0.0498059982061386,0.782729921936989,1.17129594368326
7.03299666673411,-0.96768933981657,0.278936160206795,0.703180014789105,1.22828749609542
7.04296666674782,-0.861538402140141,0.0914498680830002,0.475027507245541,0.988060033284667
7.05293666676153,-0.936230150163174,-0.251138496994972,-0.09873520642519,0.974343922716859
7.06290566676762,-1.07964802443981,-0.396383918523788,-0.225859521925449,1.17208045422891
7.07287566666491,-1.20117363095284,-0.682590506672859,-0.268462042808533,1.4074159868089
7.08284566667862,-1.27819958746433,-0.982828658223152,-0.469024170935154,1.67920517797562
7.09281566669233,-1.23888992607594,-1.2913049519062,-0.761910033524036,1.94494823245621
7.10278466669843,-1.08406910419464,-1.44923298418522,-0.792278425097466,1.97564854364198
7.11275466671214,-1.06402777254581,-1.7019999307394,-0.840709450542927,2.17617812809934
7.12272466672584,-1.08140072733164,-1.89289631903172,-0.846230099201202,2.33850152629227
7.13269466673955,-1.01400191903114,-2.11468413233757,-0.947232563495636,2.52929602868183
7.14266366674565,-0.950719842910767,-2.34421190500259,-1.0767980915308,2.74930751375406
7.15263366675936,-0.945640659034252,-2.47471883475781,-1.02394510924816,2.84023470049167
7.16260366665665,-1.00340705662966,-2.50254339516163,-0.803083494901657,2.81327074163593
7.17257366667036,-1.00356142312288,-2.39741747438908,-0.65081118196249,2.67923520263786
7.18254266667645,-0.927475991249085,-2.21466216444969,-0.609486862421036,2.477178728403
7.19251266669016,-0.934423652887344,-1.99513429999352,-0.508348742723465,2.26100130082105
7.20248266670387,-0.928361844420433,-1.63361382007599,-0.467308890223503,1.93621471593439
7.21245266671758,-0.958553650081158,-1.32290447473526,-0.609633627533913,1.74371858657831
7.22242166672368,-0.937330011427403,-0.755278413891792,-0.47440448641777,1.29386732300754
7.23239166673739,-0.933284322917461,-0.642761612534523,-0.453975192010403,1.22076025202018
7.24236166675109,-1.16342108309269,-0.560829257369041,-0.589953069090843,1.41990235447209
7.2523316667648,-1.30359141379595,-0.154295157194138,-0.433917926698923,1.38254921676112
7.26230066665448,-1.25061651706696,-0.124419978260994,-0.222161450386047,1.27627493659822
7.27227066666819,-1.28992676317692,-0.297637894749641,-0.299189014881849,1.35720795657005
7.2822406666819,-1.21405884772539,0.0772721242904663,-0.416105407476425,1.28571131171184
7.29221066669561,-0.766155112087727,0.0933034354448319,-0.809763061702251,1.11866679710331
7.3021796667017,-0.458336337804794,0.135802752971649,-0.731427328884602,0.873785170225641
7.31214966671541,-0.325007834136486,0.0485254579782486,-0.279628762900829,0.431482395195374
7.32211966672912,-0.32742887377739,0.00761249005794525,-0.000567910820245743,0.327517846705659
7.33208966674283,-0.300583429634571,0.0082884281873703,-0.145460160523653,0.334032565047579
7.34205866674893,0.112273264825344,-0.044172790646553,-0.37951309338212,0.398229468367814
7.35202866676264,0.283221584558487,0.121593434214592,-0.595741812586784,0.670751620548252
7.36199866665993,0.429818297624588,0.0523612314462662,-0.64695728212595,0.778485190885006
7.37196866667364,0.464793418049812,-0.24205075442791,-0.614498510956764,0.807607521726753
7.3819372500293,0.436634396910667,-0.287098288536072,-0.542625997960568,0.753337903937261
7.39190725004301,0.497672896385193,-0.202559829354286,-0.607174288630486,0.810783209642627
7.40187725005671,0.451512637138367,-0.276823561191559,-0.84448236644268,0.99681764268047
7.41184725007042,0.372648316025734,-0.384072021245956,-1.02749144554138,1.15849762865596
7.42181625007652,0.35548264503479,-0.491627460122109,-1.17564936518669,1.32295763361149
7.43178625009023,0.338260256052017,-0.65267907500267,-1.50627695828676,1.67609076449825
7.44175625010394,0.275072904825211,-0.772774452567101,-1.35949693500996,1.58779009123084
7.45172625000123,0.0698923534154892,-0.855558162331581,-1.03365324139595,1.343615917458
7.46169525000732,0.0168592768907547,-0.879404861927033,-0.947795358002186,1.29304028825427
7.47166525002103,-0.0165096133947372,-0.64982037127018,-0.903265887200833,1.11284695499106
7.48163525003474,-0.0757495093345642,-0.462391966581345,-0.918342932760716,1.03096947630613
7.49160525004845,-0.24988777756691,-0.725159406065941,-0.997151997685433,1.25801914614655
7.50157425005455,-0.467879578471184,-0.906393855214119,-0.952932136952877,1.39590142143271
7.51154425006826,-0.408126881718636,-0.720855855345726,-0.351607987582684,0.89990493536792
7.52151425008196,-0.500264382362366,-0.366621590852737,-0.190188875198364,0.648727717450866
7.53148425009567,-0.516766394376755,-0.686528606414795,-1.36826775848866,1.6157121317557
7.54145325010177,-0.284329047203064,-0.46065066576004,-1.02774462997913,1.16159419222012
7.55142324999906,-0.136559382677078,-0.333352687954903,-1.22877102702856,1.2804884679015
7.56139325001277,-0.249120622873306,-0.259730980396271,-1.44231572806835,1.48653823575169
7.57136325002648,-0.635761910676956,-0.0760190659761429,-1.04837886929512,1.22844224896574
7.58133225003257,-0.861486069560051,0.159699738621712,-0.523676341474056,1.02073462035023
7.59130225004628,-0.720036660432816,-0.0661419492959976,-0.818825953602791,1.09238431521028
7.60127225005999,-0.099644740819931,-0.060008220076561,-1.31157871037722,1.31672653742704
7.6112422500737,0.53674399137497,0.017744545340538,-1.78979353487492,1.86862780634521
7.6212112500798,0.313721246123314,0.411188483834267,-0.583521716594696,0.779740074155939
7.63118125009351,-0.96140913784504,0.905712069869042,-0.154246625304222,1.32981724505894
7.6411512499908,-1.91155478417873,0.742121593952179,-0.964403204619885,2.26602288033635
7.65112125000451,-0.00358141958713532,0.92214157640934,0.800405470132828,1.22106790561685
7.6610902500106,-0.296560252904892,1.27231494963169,1.54815793275833,2.02571624355976
7.67106025002431,-1.17036874473095,0.792463781833649,0.756289105117321,1.60303931788348
7.68103025003802,-1.52413640141487,0.980583327412605,0.400692147016525,1.85609526393398
7.69100025005173,-0.863915002942085,1.39884577274323,0.363006842136383,1.68371392928485
7.70096925005782,-1.16772112548351,1.93896887004375,0.217933913469315,2.27391030969546
7.71093925007153,-0.750556787252426,1.71112334132195,0.433856677114964,1.91820494118452
7.72090925008524,0.504463267922402,1.97272776961327,0.916796051859856,2.23308151270662
7.73087925009895,-0.162694682478905,1.65517425835133,0.183084508180618,1.67319793280757
7.74084824998863,-0.0525992131233215,1.09980162262917,-0.277629307508469,1.13552116613763
7.75081825000234,-0.558668711185455,0.616874234676361,-0.0751145017147064,0.835635529781383
7.76078825001605,-0.644459059238434,0.312899127602577,0.248689098358154,0.758340036349877
7.77075825002976,-0.653572237193585,0.147281422019005,0.506361858844757,0.839792128204882
7.78072725003585,-1.0543588167429,-0.324627472758293,1.29608095765114,1.70202272584675
7.79069725004956,-2.2595187869668,-1.16415373921394,1.90626451581717,3.17718798333454
7.80066725006327,-0.967668582201004,-0.538046751022339,-0.463640347123146,1.20034960021865
7.81063725007698,0.715460337102413,-0.566275354027748,0.294708732068539,0.958855832387432
7.82060625008307,-0.380679174363613,-0.412494167089462,0.0988188216090202,0.569941427851307
7.83057625009678,-0.236445321142674,-0.449121710658073,-0.131201286613941,0.524242766744425
7.84054624999408,0.197799026370049,-0.746963673233986,0.385984645485878,0.863749576274864
7.85051625000779,-0.167430927157402,-0.629666188359261,0.482757818698883,0.810905503524653
7.86048525001388,-0.58091648966074,-0.736269700527191,0.343469248116016,0.998763317445899
7.87045525002759,-0.570700526833534,-1.01777044951916,0.639997048974037,1.33084634798236
7.8804252500413,-0.414843578338623,-1.06360267996788,0.976851634383202,1.50252619641748
7.89039525005501,-0.375186884701252,-1.0976054084301,0.634258006811142,1.32203859636203
7.9003642500611,-0.323680808544159,-0.860385038852692,0.147366791367531,0.930993368450769
7.91033425007481,0.00147817611694336,-0.723148548603058,-0.0242530810832977,0.723556646222931
7.92030425008852,0.361996150910854,-0.722376716136932,-0.126988660097122,0.817921422316542
7.93027425010223,-0.0051528587937355,-0.664723754525185,-0.249137579798698,0.709897003410889
7.94024324999191,0.227639122009277,-0.718656132817268,0.293230848312378,0.808869913834742
7.95021325000562,0.145550353825092,-0.780116216540337,0.643069468438625,1.02142281061554
7.96018325001933,-0.371561026275158,-0.910640687942505,0.357628865540028,1.04652876895501
7.97015325003304,-0.0403794094920158,-1.02441113233566,0.618512332141399,1.1973329402364
7.98012225003913,0.295300470292568,-0.9155839240551,0.981290548145771,1.37420065115083
7.99009225005284,0.309955639243126,-0.843205919265747,0.582970908880234,1.07094528393567
8.00006225006655,0.894205334186554,-0.919953548312187,0.7128510171175,1.46767649137858
8.01003225008026,1.5656966561079,-0.660414941310883,1.11615453064442,2.0330653826014
8.02000125008635,1.20469950199127,-0.659653633832932,1.16953639358282,1.8039565356853
8.02997125010006,0.827853469848633,-0.65425606906414,0.639163820743561,1.23366233678231
8.03994124999736,0.554785867631435,-0.749437630176544,1.03221833467484,1.39101359119424
8.04991125001106,0.632318777740002,-0.636484626531601,1.08797416716814,1.41018704607541
8.05988025001716,0.76936523348093,-0.408009937405586,1.15050049066544,1.44292978018069
8.06985025003087,0.703130605816841,-0.279351897239685,1.20333300769329,1.42142198475047
8.07982025004458,0.355948083400726,-0.240377866029739,1.22704463660717,1.30004580564689
8.08979025005829,-0.140723477303982,-0.175281398892403,1.27817473679781,1.29778939880489
8.099760250072,-0.0215560528635979,-0.287282475829125,1.20966057211161,1.24349289666445
8.10972925007809,0.579463456571102,0.279009835124016,1.03248058229685,1.21640475928751
8.1196992500918,1.25049957275391,0.453286682367325,0.420944270789623,1.39513873037053
8.12966924998909,0.598211384117603,0.19399541258812,0.192704055011272,0.657743060024901
8.1396392500028,0.515620924830437,0.322862198352814,0.0507304430007935,0.610474008533748
8.1496082500089,0.303578373491764,0.0939431208372116,0.299139459729195,0.436428178709412
8.15957825002261,-0.378366015851498,-0.394167239069939,0.460776088535786,0.714732997750693
8.16954825003631,-0.726400769948959,-0.499204282164574,0.583742741346359,1.0571748114614
8.17951825005002,-0.660580417513847,-0.329249112010002,0.590605910718441,0.94529720592928
8.18948725005612,-0.501934931874275,-0.36424469769001,0.436851328611374,0.75858549876757
8.19945725006983,-0.502001882493496,-0.435323451161385,0.268901461064816,0.71681266236086
8.20942725008354,-0.502626949846745,-0.156491956114769,-0.332302235662937,0.62253382146471
8.21939725009725,-0.188149951100349,0.0264118731021881,-0.646317304372788,0.673664641399218
8.22936625010334,0.00676815211772919,0.0651297962665558,-0.85511786699295,0.857621282790595
8.23933625000063,0.463373421728611,0.0903196012973785,-1.00510157972574,1.11045114431486
8.24930625001434,0.193865312039852,0.126183498501778,-0.750707937777043,0.785537040723044
8.25927625002805,-0.154239316284657,0.0857874244451523,-0.0803188160061836,0.193908125372626
8.26924525003415,0.140072097480297,0.513037040233612,0.289878931939602,0.60568720667242
8.27921525004786,0.098260997235775,0.58928063929081,-0.196091639399529,0.628775656703684
8.28918525006156,0.0150100949406624,0.0369602501392365,-0.0127250030636787,0.0418722908789722
8.29915525007527,0.650982213020325,0.393343366384506,0.17500131726265,0.780462879701013
8.30912425008137,0.699266180992127,0.379620535969734,0.346818240880966,0.86796764652666
8.31909425009508,0.561574192643166,0.272618828415871,0.158286174237728,0.644003969245906
8.32906424999237,0.608147850036621,0.585265356302261,0.0215089827775955,0.844299698644921
8.33903425000608,0.364405788481236,0.827760499119759,-0.195359275639057,0.925280643458967
8.34900325001217,0.400029365122318,0.77106589615345,-0.460926361978054,0.98337135423878
8.35897325002588,1.01759240180254,0.564170941114426,-0.108997069895267,1.16861606537389
8.36894325003959,0.604580756127834,0.419828914403915,0.00862844377756119,0.736103700637143
8.3789132500533,0.477712548673153,0.344013331532478,0.26732388228178,0.646541962652137
8.38888250000309,0.487011375725269,0.361832721233368,0.478887839019299,0.772940205062162
8.3988525000168,0.505316376686096,0.262828250527382,0.25925384759903,0.625808187320484
8.40882250003051,0.502971058487892,0.0622248995304108,0.0994248855113983,0.516466002421219
8.41879250004422,0.453746565878391,-0.202382658720016,-0.0810807082056999,0.503407159106974
8.42876150005031,0.317258811593056,-0.431040365695953,-0.125889383554459,0.549815502950272
8.43873150006402,0.237024195492268,-0.527549829483032,0.131703562438488,0.593156910265169
8.44870150007773,0.160016365349293,-0.668122740983963,0.112837521135807,0.69622233544723
8.45867150009144,-0.0601573240756989,-0.807574741244316,0.234027789831162,0.842950100984057
8.46864050009754,-0.204292651712894,-0.793506925106049,0.248682666420937,0.856289551678268
8.47861049999483,-0.276497286558151,-0.630261434912682,0.157108837366104,0.705948590614601
8.48858050000854,-0.14408007144928,-0.446244295835495,-0.154102199077606,0.493599560691762
8.49855050002225,0.257887060940266,-0.106229875087738,-0.216131509244442,0.352850324996088
8.50852050003596,0.430333144962788,0.0608537274599075,-0.309798056781292,0.533727109846214
8.51848950004205,0.600555240511894,-0.13836617231369,-0.330198115110397,0.699172789637512
8.52845950005576,0.605003217458725,-0.340470503568649,-0.270855892896652,0.745192573535554
8.53842950006947,0.689546939134598,-0.332429412603378,-0.240517614483833,0.802392060348751
8.54839950008318,0.622105153799057,0.0141941159963608,-0.0568729430437088,0.624860646034554
8.55836850008927,0.485658622384071,0.0866609984636307,0.160637632012367,0.518824512691188
8.56833850010298,0.572189227938652,0.140467661619186,0.342715542018414,0.681605178435998
8.57830850000028,0.666289346516132,0.318909480571747,0.408193832337856,0.84395909547685
8.58827850001399,0.821618291437626,0.308083945512772,-0.26288379907608,0.916013223771509
8.59824750002008,0.829884792566299,-0.00925029516220093,-0.54110835313797,0.990753544898571
8.60821750003379,0.949306570887566,-0.154456540346146,-0.0280034852027893,0.962197476389079
8.6181875000475,1.08211087167263,-0.242050169706345,0.275363511443138,1.14253108784018
8.62815750006121,1.14816101968288,-0.35466345012188,0.646475763916969,1.36454783840788
8.6381265000673,0.445817449092865,-0.114171563386917,0.670582956969738,0.813307965029336
8.64809650008101,0.137259586751461,0.0119435226917267,0.326242181360722,0.354142348199805
8.65806650009472,0.34126630961895,0.109840530753136,0.571709171533585,0.674817762875789
8.66803649999201,0.348336178064346,0.803216811418533,0.74993756711483,1.15277998493379
8.67800549999811,0.323401311635971,1.39248458683491,0.626932615041733,1.56097605258496
8.68797550001182,0.538035641312599,1.75142995297909,0.237703349590302,1.84756383216425
8.69794550002553,0.536932856440544,1.9785065728426,-0.047902729511261,2.0506291284875
8.70791550003924,0.113585087656975,1.74991844773293,-0.201332498788834,1.7651206533613
8.71788450004533,0.005131516456604,1.39429897785187,0.256430811882019,1.41769274999288
8.72785450005904,-0.126253372728825,1.201927921772,0.594420341849327,1.3468133449238
8.73782450007275,0.155304386615753,0.831327300667763,0.370985952615738,0.923501548659151
8.74779450008646,-0.202302551865578,0.362084151506424,0.478069813549519,0.632915477683018
8.75776350009255,-0.275643008351326,0.536266273856163,0.62328570663929,0.867205659938507
8.76773349998985,0.29641290307045,0.8537525421381,0.817259776890278,1.21846934932179
8.77770350000355,0.444978666007519,1.25467740833759,0.754469743967056,1.53017842317695
8.78767350001726,0.653964293003082,1.66303233146667,1.05304845571518,2.07418824654626
8.79764350003097,0.906179847121239,2.12446710884571,1.4110594367981,2.70658662268047
8.80761250003707,0.788058489561081,2.05401342272759,1.13097956120968,2.47368593228575
8.81758250005078,0.551891495883465,1.65626944184303,0.967459544241428,1.99594355054329
8.82755250006449,0.377776908874512,1.75278884589672,0.978889389038086,2.04284325564888
8.83752250007819,0.233444237709045,2.14142286479473,1.03010251969099,2.3877393700023
8.84749150008429,-0.00308966875076294,2.26284380614758,1.0846889090538,2.50938671123001
8.857461500098,-0.17187861174345,1.93152185618877,1.25477330267429,2.30971318115777
8.86743149999529,-0.396775974333286,1.23192413806915,1.15695786327124,1.73597803936303
8.877401500009,-0.519226318001747,0.628596147894859,1.38234317600727,1.60486813872909
8.8873705000151,-0.336147657036781,-0.53726556301117,1.57162163972855,1.69459260915185
8.8973405000288,-0.513895996212959,-0.606420582532883,0.951589323878288,1.23990211676663
8.90731050004251,-0.387651394307613,-1.00031124830246,0.932367479503155,1.42133926767121
8.91728050005622,-0.158016032874584,-1.28016659080982,0.70394512295723,1.46946735350137
8.92724950006232,-0.222600283920765,-1.4160968130827,-0.155658143162727,1.44191210826369
8.93721950007603,0.0417964822053909,-1.28103256344795,-0.349655309915543,1.32855192231652
8.94718950008974,0.359509037733078,-1.18493240475655,-0.262435317635536,1.26577401142398
8.95715950010344,0.460015658140183,-1.22949578940868,-0.794979838728905,1.53468799626936
8.96712849999312,0.373168425858021,-1.35036066055298,-1.09664529561996,1.77914571972951
8.97709850000683,0.471389954388142,-1.59101626932621,-1.11842061907053,2.00110118172991
8.98706850002054,0.478212193250656,-1.66750837504864,-1.1936114269495,2.10570162206695
8.99703850003425,0.489774185121059,-1.62504355609417,-1.08699622035027,2.01549152681671
9.00700750004035,0.853505497276783,-1.77307926893234,-0.306030403375626,1.99146587607962
9.01697750005405,0.782128681987524,-1.84923983752728,0.256022383868694,2.02409503554731
9.02694750006776,0.357846381962299,-1.61919692516327,0.201621935963631,1.67048020658834
9.03691750008147,0.137537914216518,-1.4165628361702,0.245745025277138,1.44428444709276
9.04688650008757,0.0888402557373047,-1.62743331313133,-0.00660530716180801,1.62986975240717
9.05685650010128,-0.0037983512878418,-1.43022134721279,0.145556493401527,1.43761407278415
9.06682649999857,0.0582444074749947,-1.30678428590298,0.192560505867004,1.32217893240848
9.07679650001228,-0.105104578435421,-1.16007589101791,0.0401294410228729,1.16551851867137
9.08676650002599,-0.355471827685833,-0.759270308017731,0.111583293378353,0.845755551135673
9.09673550003208,-0.417106304615736,-0.345141259431839,0.0567238390445709,0.544350762127092
9.10670550004579,-0.936779788434506,-0.15380399107933,-0.0901757597923279,0.953595148553856
9.1166755000595,-1.15393456041813,0.064750896692276,0.200059267580509,1.17293706518921
9.12664550007321,-1.32167977541685,-0.0800320100784302,0.605988473296166,1.45618150693894
9.1366145000793,-2.01218068778515,-0.0882192814350128,0.66952548801899,2.12247924395493
9.14658450009301,-2.06037928640842,0.394285352826119,0.454830347299576,2.1465074861595
9.15655449999031,-1.99333978950977,0.734257088899613,-0.149489915370941,2.1295267605362
9.16652450000402,-1.62841929987073,1.06394181847572,-0.834894686937332,2.11678311302058
9.17649350001011,-1.00456378206611,1.10163121640682,-1.44795302867889,2.07829442150561
9.18646350002382,-0.265938238352537,0.920548210144043,-1.49112828433514,1.7724547142767
9.19643350003753,0.0952844721078873,0.931328136920929,-0.236441228091717,0.96558566869388
9.20640350005124,-0.575242497771978,0.141446485519409,-0.123484716117382,0.605111158898369
9.21637250005733,-0.885620452165604,-0.768014819025993,0.374158651828766,1.23051413818609
9.22634250007104,-0.318044531196356,-0.353800401091576,1.56801244586706,1.63859393323376
9.23631250008475,-0.0255795219540596,-0.387186833024025,1.48511530011892,1.53497081739618
9.24628250009846,0.316223708242178,-0.550895422697067,0.897459602057934,1.09950758875462
9.25625249999575,0.367655232399702,-0.642949308156967,0.181782040894032,0.762626312922654
9.26622150000185,0.604735268801451,-0.44636182487011,-0.516281952559948,0.911861107062282
9.27619150001556,0.621594838052988,-0.350937604308128,-1.07972550004721,1.29435099577504
9.28616150002927,0.490088253691793,-0.51977829515934,-0.56618969231844,0.911551830788063
9.29613150004298,0.0162396182119846,-0.973930950164795,0.0851342904567719,0.977779662449649
9.30610050004907,-0.172572237700224,-1.27872700631619,0.404108675122261,1.35211972665748
9.31607050006278,-0.475236106663942,-0.89361418068409,0.364394386410713,1.07572251526332
9.32604050007649,-0.470792588219047,-0.305339847207069,-0.0751919773221016,0.566155382265357
9.3360105000902,-0.314009440764785,-0.428539511561394,-1.02999785453081,1.1589407328232
9.34597950009629,-0.772413606271148,-0.547946087121964,-1.76217801243067,2.00053468878677
9.35594949999359,-0.49183489009738,-0.310247415304184,-1.10881510555744,1.25204870357841
9.36591950000729,-1.50429358273745,-0.443923535943031,-0.906458759307861,1.81152829708928
9.375889500021,-1.71428975477815,-1.02526424109936,-1.40609310418367,2.44275540016745
9.38585791666992,0.501504576802254,0.772609561085701,-0.411096682548523,1.00867876791229
9.39582791668363,-0.620586778074503,1.3439164441824,0.0684755730628967,1.48186647919812
9.40579791669734,-0.850113381296396,0.405034289360046,-0.804741765260696,1.23869077875453
9.41576791671105,-0.194458512067795,0.0510333287715912,-1.54361990869045,1.55665697443806
9.42573691671714,0.334391153454781,0.777201379537582,-0.530743286311627,0.998773179369973
9.43570691673085,-0.633092510551214,0.103957062363625,-0.355213673114777,0.733341633414472
9.44567691674456,-0.0694706229865551,0.164731267690659,-0.275645054876804,0.328546426386208
9.45564691675827,-0.339351054131985,0.459965372085571,0.188809517025948,0.601977005522536
9.46561691665556,-0.124823436141014,0.430551538467407,0.238199193477631,0.507636063789892
9.47558591666166,-0.156361124664545,0.512434777021408,0.438220746517181,0.692152891119742
9.48555591667537,-0.401366769522429,0.2759143191576,-0.0905906197428703,0.495409583656261
9.49552591668908,-0.206355841755867,0.50560873746872,-0.0688419011235237,0.550419963465885
9.50549591670279,-0.765872545391321,0.558164681196213,-0.0428016185760498,0.948651962350672
9.51546491670888,-0.863415358364582,0.338594132065773,-0.44397469907999,1.02822448947318
9.52543491672259,-0.280795428603888,-0.0349675190448761,-0.256619969308376,0.381998179001977
9.5354049167363,-0.588718283325434,-0.618643017411232,-0.477497955858707,0.978423577987859
9.54537491675001,-0.545463066995144,-0.552228003144264,-1.3313902464509,1.54113130954408
9.5553439167561,-1.10678012832999,-0.339548397660255,-1.40837088704109,1.82311928361386
9.56531391676981,-1.62299249902368,-1.06441485822201,-2.04387230426073,2.81859852380841
9.5752839166671,-0.640905413925648,-0.481839805841446,-2.31667882829905,2.45151588646322
9.58525391668081,0.516112675666809,0.392259877324104,-1.09417133867741,1.27179047949156
9.59522291668691,0.0169206726551056,0.357610446810722,0.118355246186256,0.377066976982969
9.60519291670062,-0.72998832911253,-0.301039220094681,0.909926158189774,1.20477100979137
9.61516291671433,-0.00680703610181809,-0.19825393974781,0.835784048438072,0.85900287309738
9.62513291672804,0.61930696874857,0.113352368474007,0.935174143016338,1.1273599951859
9.63510191673413,0.0151817107200623,-0.219825487732887,0.915221104323864,0.941373145568314
9.64507191674784,-0.0929748219251633,-0.754658024311066,0.0906435370445252,0.765747544545224
9.65504191676155,0.23524576485157,-0.261812589168549,-0.846218404769898,0.916499858319165
9.66501191665884,0.0593739433586597,0.118751687407494,-1.55339469909668,1.55905815144713
9.67498191667255,-1.10680600225925,0.0560707050561905,-1.9457703512907,2.23923775213008
9.68495091667865,-0.845485456287861,0.487834371328354,-2.03231674432755,2.25458186365404
9.69492091669235,-0.930667547732592,0.676348603963852,-1.82630179524422,2.15846421462083
9.70489091670606,-1.76436867177486,0.207223568558693,-1.99699780762196,2.67281474497461
9.71486091671977,-1.8951207460463,0.0141835910081863,-1.75677957057953,2.58417458310281
9.72482991672587,-1.45593857109547,0.302177088260651,-0.780437813401222,1.67933060951668
9.73479991673958,-0.554802239835262,-0.53688666343689,-1.26359324276447,1.48078381199372
9.74476991675329,-1.33060584247112,-1.50542472660542,-1.51523752391338,2.51649761958331
9.75473991676699,-1.5059818200767,-1.44310802578926,-2.64838377088308,3.37112423597467
9.76470891665667,0.240477999597788,1.24146270096302,-0.300491335988045,1.29975164903794
9.77467891667038,-0.21159538552165,0.79988974571228,0.323160991072655,0.888273177924884
9.78464891668409,-1.13639759123325,-0.0308779764175415,0.266579239368439,1.16765466883434
9.7946189166978,-0.718566231876612,-1.66140972912312,0.0501939609646797,1.81083934995229
9.80458891671151,0.621870972812176,-1.62660710155964,1.1814924877882,2.10439983567063
9.8145579167176,0.702441511452198,0.239593754410744,0.931440111100674,1.19097016114222
9.82452791673131,2.3920566008985,1.90244072914124,2.02107225626707,3.6641436345823
9.83449791674502,2.13282497271895,2.02389266073704,1.6627458178997,3.37784065956075
9.84446791675873,-0.308308332413435,0.60081661105156,0.617183844745159,0.914850002003307
9.85443691676483,-0.34896738499403,1.14888899803162,0.703669719099999,1.39171665189648
9.86440691666212,-0.102976484298706,1.64812894821167,0.00048502653837204,1.65134291457061
9.87437691667583,-0.0666778466105461,1.41345328688622,-0.642794356942177,1.55418168653307
9.88434691668954,0.268704263716936,1.14306751012802,-0.921260693371296,1.4924900600007
9.89431591669563,0.438737348020077,0.937248442769051,-1.23161598980427,1.60866499009652
9.90428591670934,0.467809558063746,0.603720338344574,-1.58119733244181,1.7559923216426
9.91425591672305,0.50754577383399,0.64567118704319,-1.13764421761036,1.40311380870434
9.92422591673676,0.194828640818596,0.395050753355026,-1.10949279785156,1.19373261892858
9.93419491674285,0.13948401376605,1.26107952475548,-1.09983173578978,1.67910905092675
9.94416491675656,-0.047466527223587,0.968384866118431,-0.961369376778603,1.36537665087021
9.95413491677027,-0.56220320686698,-1.17921967506409,-0.763304009735584,1.5130315592043
9.96410491666757,-0.320939195305109,-0.213671877980232,-0.687994795739651,0.788666264961
9.97407491668128,-0.18706675440073,0.312548294663429,-0.280529526472092,0.459757786580822
9.98404391668737,-0.816521565914154,0.173706743717194,-0.0698677951097489,0.837712963495988
9.99401391670108,-1.11741022020578,0.0203839784860611,-0.255057300925255,1.14633124948879
10.0039839167148,-0.638386725783348,0.86964059650898,-0.24922470331192,1.10721512430683
10.0139539167285,-0.877686511427164,0.677875896692276,-0.0792707026004791,1.11181526700631
10.0239229167346,-1.65938513070345,1.28479992449284,-0.368662853837013,2.13077032027756
10.0338929167483,0.123852944523096,1.94384018540382,0.51214855581522,2.01398866965071
10.043862916762,-0.398671641647816,1.94462780535221,0.325891056060791,2.01164643007253
10.0538329166593,-0.9225695925951,3.0930882024765,0.438213437497616,3.25735480079832
10.0638019166654,-0.391748538315296,2.76016353070736,0.90369361102581,2.93063675267474
10.0737719166791,-0.914518122822046,0.656659274697304,0.777658339440823,1.36831914877992
10.0837419166928,-1.34976380601525,-1.08314992189407,0.0848901692032814,1.73270956197375
10.0937119167065,-1.76897876277566,-0.343830898404121,0.431788516938686,1.85309116699875
10.1036809167126,-0.493987542539835,0.193277374505997,0.870911196470261,1.01973827417516
10.1136509167263,-0.744677704274654,0.722113006711006,-0.116225105524063,1.04379133588043
10.12362091674,-1.05827425852418,-0.438367511630058,-0.272948319017887,1.17754459209081
10.1335909167537,-0.733695463836193,-1.0092446243763,-0.396142720878124,1.3091267321352
10.1435609167675,-0.311616540849209,-1.43817063689232,-0.0863885182142258,1.47407687229307
10.1535299166571,-0.668988128900528,-0.728376544117928,0.338226342201233,1.04521508082778
10.1634999166708,0.341633807122707,-0.0166265577077866,0.73971663415432,0.814966747441245
10.1734699166846,0.0225329764187336,-1.10422971904278,0.822437486350536,1.37703828065823
10.1834399166983,-0.369312479496002,-1.8993387812376,0.787462658286095,2.08901339191965
10.1934089167044,0.118047097921371,-1.23218843221664,1.01569848865271,1.60120794079581
10.2033789167181,0.108188399970531,-0.287318143844605,0.850372851490975,0.904096472851976
10.2133489167318,-0.215511996746063,0.264751399755478,0.401436205208302,0.526962760796246
10.2233189167455,-0.407147180736065,0.793697544336319,0.0571565330028534,0.893863237823178
10.2332879167516,-0.487679127752781,0.566361892819405,-0.346505414843559,0.823809885713688
10.2432579167653,-0.428108279407024,-0.255604600310326,-0.341559839844704,0.604378635287006
10.2532279166626,-0.236863104701042,-0.807446102499962,-0.139976203143597,0.853033807218385
10.2631979166763,-0.187415248453617,-1.18687543451786,0.129950274825096,1.20858795556716
10.27316791669,-0.192539017349482,-1.05769523799419,0.305808793902397,1.11772514873091
10.2831369166961,-0.139566020965576,-1.24937047541142,0.302972894310951,1.29313488612947
10.2931069167098,-0.0264587970077992,-1.24073355317116,0.419941180944443,1.31014137151562
10.3030769167235,0.488522003889084,-0.11104798078537,0.673125033974648,0.839096367340298
10.3130469167372,0.476791319847107,-0.651461684703827,0.297522119879723,0.860378812579912
10.3230159167433,0.460882361680269,-0.835280603170395,0.410480386018753,1.0385568759807
10.332985916757,0.349873118698597,-1.0021326559782,0.49013086527586,1.16914897445188
10.3429559167707,0.5072982904315,-0.362198172211647,0.82791661977768,1.0363324759614
10.352925916668,0.517478731423616,-0.219726085066795,0.680439900755882,0.882645029711974
10.3628949166741,0.263616601377726,-0.591986730694771,0.529870004653931,0.837080774879332
10.3728649166878,0.317334240674973,-0.882954706549645,0.481427577137947,1.05455324481595
10.3828352499986,0.86504892423749,0.00734059453010559,0.937832871973515,1.27588950203636
10.3928052500123,0.896635290831328,-0.0237683469057083,0.678783969283104,1.12484108034626
10.4027742500184,0.727999691069126,-0.322867460846901,0.640746662020683,1.02214638499635
10.4127442500321,0.580837990790606,-0.0634610009193421,0.807280333936215,0.99654483478844
10.4227142500458,0.197778268754482,0.169036572575569,0.917268799245358,0.953452493063307
10.4326842500595,-0.054281457066536,0.310644441246986,1.03593511730433,1.08287026587826
10.4426542500732,-0.108005089759827,0.380123981237412,1.00960598230362,1.08418798186895
10.4526232500793,-0.0383233822882175,0.318488481044769,0.844104928672314,0.903004277286163
10.4625932500931,0.00276690244674683,0.307995652556419,0.676088987588883,0.742943670059692
10.4725632499903,-0.0636089354753494,0.342116494774818,0.585238751471043,0.680877513869198
10.4825332500041,-0.233640411794186,0.44846039056778,0.639616102874279,0.815360854461166
10.4925022500101,-0.486944863647223,0.322046511769295,0.6419409558177,0.867708157580257
10.5024722500239,-0.322276892066002,-0.0219767600297928,0.409227912425995,0.52135674681514
10.5124422500376,-0.311358970999718,-0.110107748508453,0.352031618356705,0.482694919619468
10.5224122500513,-0.439063915014267,-0.282381924390793,0.278880026936531,0.591853649236383
10.5323812500574,-0.318762569278479,-0.214496920108795,0.435113536119461,0.580467306248644
10.5423512500711,-0.118493971377611,-0.45499348461628,0.369300492703915,0.597865157211438
10.5523212500848,0.164351198673248,-0.556305266618729,0.289642119705677,0.648366735482833
10.5622912500985,0.380427013188601,-0.390900984406471,0.302540492713451,0.623745975301521
10.5722612499958,0.212682675272226,-0.635015221238136,0.285763369202614,0.728106417183024
10.5822302500019,-0.0689630846679211,-0.71739021062851,0.353772042095661,0.802844492489714
10.5922002500156,-0.0153109341859818,-0.527373828291893,0.458179047703743,0.698774369326468
10.6021702500293,0.206547776609659,-0.956633716821671,0.230313346087933,1.00541249722124
10.612140250043,0.288465221375227,-0.927125158309937,-0.0287504670023918,0.971390669332962
10.6221092500491,0.0592954444885254,-0.459649037718773,0.189665549397469,0.500765622063985
10.6320792500628,-0.0837825603783131,-0.525607384443283,0.53598736166954,0.755357592054472
10.6420492500765,-0.184472490996122,-0.838114748597145,0.538336772918701,1.01305128834965
10.6520192500902,-0.06635508030653,-0.546533984541893,0.626068104207516,0.833704782310691
10.6619882500963,-0.195401814132929,-0.329607546329498,0.596009322702885,0.708554949395277
10.6719582499936,-0.480644927322865,-0.150348286628723,0.671643349528313,0.839481353228888
10.6819282500073,-0.516850009560585,0.0756805121898651,0.642458726763725,0.828018531135001
10.691898250021,-0.313753698170185,0.211907773017883,0.53043718457222,0.651697701513339
10.7018682500348,-0.192395322024822,0.192576293349266,0.489390607774258,0.560004246122148
10.7118372500408,-0.227899907827377,0.00786801338195801,0.62413267582655,0.664486170402902
10.7218072500546,-0.357323640882969,0.0953885525465012,0.768746890425682,0.853083197484239
10.7317772500683,-0.316161727756262,-0.0665337127447128,0.652267431020737,0.727899563538688
10.741747250082,-0.183323074579239,-0.071160614490509,0.499188494682312,0.536526174525572
10.7517162500881,-0.135417129099369,0.062059423327446,0.399614797532558,0.42647527159759
10.7616862501018,-0.306525077819824,0.0614916586875916,0.199195341467857,0.370698842030963
10.7716562499991,-0.312548513934016,0.27406426012516,0.349710566103458,0.543226722726998
10.7816262500128,-0.00668117478489876,0.1946485465765,0.418378220200539,0.461490010638389
10.7915952500189,0.205292233228683,0.0623687410354614,0.345077524781227,0.406341308497557
10.8015652500326,0.371274001076818,-0.12577477812767,0.2897628647089,0.48746917487464
10.8115352500463,0.22456399820745,-0.236861935257912,0.307526998221874,0.448447789938132
10.82150525006,-0.199300591349602,-0.281309545040131,0.361957266926765,0.499868831718962
10.8314752500737,-0.461627370044589,-0.260933167934418,0.40130113452673,0.665002667269099
10.8414442500798,-0.220681739374995,-0.12116074025631,0.590134040415287,0.641590633293459
10.8514142500935,0.0660570184886456,0.0439067423343658,0.599164187908173,0.604391475606403
10.8613842499908,0.302402644604445,0.28884894490242,0.323039953708649,0.52842774730997
10.8713542500045,0.217192486524582,0.416323508620262,0.137399042844772,0.489261011125223
10.8813232500106,0.106795008480549,0.0632113248109818,0.358630785942078,0.379495567887363
10.8912932500243,0.076870201304555,-0.0591369849443436,0.552512470185757,0.560960106021522
10.901263250038,0.128039039298892,-0.110009515285492,0.609772498905659,0.632707348984966
10.9112332500517,-0.0176353485882282,-0.387865694761276,0.438078074455261,0.585374411817689
10.9212022500578,-0.0914104724675417,-0.427271250486374,0.112220347523689,0.451120829010662
10.9311722500715,-0.472122171968222,-1.21018477499485,-0.145148650109768,1.30710162784766
10.9411422500853,-0.643977394849062,-0.435453844070435,0.449270229935646,0.897870076847832
10.951112250099,-0.314546142071486,0.908657897114754,0.418365648686886,1.04863161571748
10.9610822499963,-0.0389230507984757,1.00625962078571,-0.103658854365349,1.01233323880805
10.9710512500023,-0.00110384467989206,0.38440005004406,-0.254607357680798,0.461074314543925
10.9810212500161,-0.196639377325773,-0.229238335490227,0.0182973995804787,0.302575699627061
10.9909912500298,0.0201809704676271,-0.228881070613861,0.411179420650005,0.471022644912574
11.0009612500435,0.0905819950997829,-0.152726933956146,0.414424625337124,0.450864041899238
11.0109302500496,-0.241044777520001,0.136952900290489,0.590642748177052,0.652470334683335
11.0209002500633,-0.46688445545733,0.365078510642052,0.643496022820473,0.874843154551759
11.030870250077,-0.390023536607623,0.287992912530899,0.53119732260704,0.719186257043915
11.0408402500907,-0.336811023652554,0.243848773241043,0.493802331984043,0.645557613957052
11.050810249988,0.0219501551985741,0.243966302275658,0.536114830970764,0.589423852542557
11.0607792499941,0.14663442760706,0.20049283862114,0.408465727865696,0.478062009093868
11.0707492500078,0.0698168512433767,0.237065418362618,0.426404400765896,0.492843908650097
11.0807192500215,0.082036106698215,0.360398399233818,0.548543672561646,0.661450746223721
11.0906892500352,-0.141216032132506,0.503662784099579,0.390608915984631,0.652834966178188
11.1006582500413,-0.835437747091055,0.370823984742165,0.563216675519943,1.07362920997352
11.110628250055,-0.676693151146174,0.356274942755699,0.471282365620136,0.898305362217229
11.1205982500687,0.248275042399764,0.417685325145721,-0.285454051494598,0.563547285536336
11.1305682500824,0.305634839236736,0.271818344593048,-0.337670564353466,0.530395397268263
11.1405372500885,0.189005544930697,0.139760148525238,0.0740675577521324,0.246458917959387
11.1505072501022,-0.192877498045564,0.0475963354110718,0.310903472900391,0.368955430720844
11.1604772499995,-0.257622931245714,-0.00575716853141785,0.504783402979374,0.56675303582475
11.1704472500132,0.28177980735898,0.229586829543114,0.490409777462483,0.610419300125516
11.1804172500269,0.686713524609804,0.203514679670334,0.321942138969898,0.785264560876048
11.190386250033,0.753319450467825,0.146807797551155,0.220094752013683,0.798426216840937
11.2003562500468,0.594264001920819,0.081938202381134,0.258527038693428,0.653222628759899
11.2103262500605,0.44178411282599,-0.244275619983673,0.345675987303257,0.611829771310563
11.2202962500742,0.391870489306748,-0.340170541405678,0.653593871891499,0.834543843667822
11.2302652500803,0.583667970076203,-0.450940779447556,0.575277142524719,0.93539279266683
11.240235250094,0.532174830883741,-1.27656119763851,0.415187979340553,1.4440220220382
11.2502052499913,0.516864115968347,-0.574133427143097,0.565714021325111,0.957501989795659
11.260175250005,0.78253440566361,0.0268901753425598,0.0441917940974236,0.784242368303831
11.2701442500111,0.499834794737399,-0.901554699540138,-0.292739389836788,1.07160256095957
11.2801142500248,0.283709406796843,-1.37347996652126,-0.0903669637441635,1.40538408774136
11.2900842500385,0.210897703059018,-1.41601962983608,-0.100114272236824,1.43513494164911
11.3000542500522,0.19294351676479,-1.19959839105606,-0.193437588214874,1.23031768296658
11.3100242500659,0.402072418816388,-0.646361743211746,0.106283377110958,0.768597351875934
11.319993250072,0.302309820055962,-0.189869032502174,0.620407414734364,0.715784071534814
11.3299632500857,0.371962729990482,0.0899991738796234,1.08569141417742,1.15116548359458
11.3399332500994,0.0570701632322744,-0.564890733361244,1.36736436367035,1.48055524962913
11.3499032499967,-0.387320807352662,-1.06025105595589,1.07034554287791,1.5555671925772
11.3598722500028,0.279836996868253,-0.447167571187019,-0.298053631782532,0.605890707105083
11.3698422500165,0.636087527498603,-0.119452768564224,-0.668246263414621,0.930284566745331
11.3798122500302,0.517884053103626,-0.0368719571828842,-0.356702520400286,0.629920726556487
11.3897825416643,0.173346865866333,0.0220785015821457,0.369546660482884,0.408780296017121
11.399752541678,-0.103681274782866,-0.123265737891197,0.683681889474392,0.702399583480611
11.4097215416841,-0.0313371198903769,-0.757186360359192,0.738361541926861,1.05806000113114
11.4196915416978,-0.538803234547377,-1.01655130505562,0.814426508545876,1.4096013688952
11.4296615417115,-0.108542193062603,-0.842197274565697,0.865495505332947,1.21250159864318
11.4396315417252,0.828195385783911,-0.754179722070694,1.002368298769,1.5031423274572
11.4496005417313,0.924608662873507,-1.34171555221081,0.589793878644705,1.73290467764152
11.4595705417451,0.449598404914141,-1.9349974411726,0.0628756946325302,1.98753796844774
11.4695405417588,0.493614599816501,-2.46650817453861,-0.117762923240662,2.51817117255916
11.4795105416561,0.112061449438334,-3.56937841594219,-0.0847226464748383,3.57214193047672
11.4894795416622,-1.62497382804751,-4.57644729137421,0.312814342975616,4.8664424958831
11.4994495416759,-2.97878536909819,-6.02701051712036,0.280250468105078,6.72878580232021
11.5094195416896,0.0117907276377082,-5.84266242563725,0.293289905190468,5.85003095801195
11.5193895417033,1.21332969993353,-6.25106061816216,-0.00228626132011414,6.36772589231583
11.529359541717,0.521436638608575,-7.2404241245985,-1.32660166919231,7.37939764891791
11.5393285417231,0.416500094532967,-7.61797182261944,-1.85024906694889,7.85050244434807
11.5492985417368,0.725655542314053,-7.55535515964031,-1.8415672673285,7.81033530358911
11.5592685417505,0.477314316742122,-7.72500802874565,-1.57182293012738,7.89773418929923
11.5692385417642,-0.184001570865512,-7.92388820528984,-1.10055883705616,8.00206789660241
11.5792075417703,-0.437624038159847,-7.81156494677067,-0.274618722349405,7.82863188297013
11.5891775416676,-0.564788882173598,-7.30980192303658,0.592522920370102,7.35549278067894
11.5991475416813,-0.507891344279051,-5.84646311581135,1.28127858504653,6.00672617942877
11.609117541695,0.655850166231394,-3.42597428262234,1.34426537677646,3.73824673195006
11.6190865417011,3.35073552757502,2.83389633536339,0.784299899339676,4.45797300882853
11.6290565417148,7.49342203617096,18.1707278394699,-0.855808423161507,19.6738184419145
11.6390265417285,5.79856389462948,27.0546177577972,1.33713118895888,27.7013285796387
11.6489965417422,-9.59766070246697,25.096443707943,2.84606906890869,27.0193761380722
11.6589665417559,-14.0545382809639,19.109800028801,-1.50828167617321,23.7695060328674
11.668935541762,2.23194901898503,9.82772057175636,-1.32844354212284,10.1651586463016
11.6789055416593,6.10055504143238,5.28619285225868,-0.358857219368219,8.08018472491251
11.688875541673,1.99858971208334,1.55443374931812,-1.69035812437534,3.04432844924891
11.6988455416868,0.0696431889384985,-1.28176054179668,-1.6103196823597,2.05934206475454
11.7088145416928,0.215102764740586,-2.28819148600102,-0.956973440051079,2.48955571156176
11.7187845417066,0.25379989374429,-2.41015446424484,-0.618089286088944,2.50105843457563
11.7287545417203,0.129508042596281,-2.15627654671669,-0.143126975297928,2.16489866046323
11.738724541734,0.0782620944455266,-1.3060048520565,0.0969210346788168,1.31193266442502
11.7486945417477,-0.202233043089509,-0.0955212843418121,0.0987875390052796,0.244502550788887
11.7586635417538,-0.395932111479342,0.495538662672043,0.143177772983909,0.650246628426414
11.7686335417675,-0.113483638465405,0.572800261974335,0.172980884984136,0.609016471769941
11.7786035416648,-0.20488343976438,0.414240730404854,0.243357607126236,0.522298316637378
11.7885735416785,-0.17559488274157,0.176683561205864,0.34443140745163,0.425068980383799
11.7985425416846,-0.232140198983252,-0.152216472029686,0.505109385251999,0.576363095115224
11.8085125416983,-0.319730575829744,-0.360313029885292,0.638216571807861,0.799608349853676
11.818482541712,-0.482556747570634,-0.358624938726425,0.745271415933967,0.957550178690757
11.8284525417257,-0.471401868090034,-0.347057976722717,0.759158041477203,0.958639605057679
11.8384215417318,-0.387021137550473,-0.310110005736351,0.685912748426199,0.846421806797441
11.8483915417455,-0.191556867845356,-0.235629342198372,0.52147676512599,0.603451105798827
11.8583615417592,-0.036904920861125,-0.150837698578835,0.264648927301168,0.306843672279525
11.8683315416565,-0.119694267706946,-0.124544523954391,-0.0633284153044224,0.183979738976599
11.8783015416702,-1.07662508703768,-0.244974362254143,-0.452676306143403,1.19333560004902
11.8882705416763,-0.492544449716806,-0.474591012597084,-0.58557058095932,0.900405225145763
11.89824054169,0.361528446748853,-0.523508234024048,-0.378028192967176,0.740046622570257
11.9082105417037,0.1494136366155,-0.521874521970749,-0.250956136956811,0.598043839668257
11.9181805417174,-0.0628878824226558,-0.474382266998291,-0.0852430486679077,0.48606563172502
11.9281495417235,-0.114380107987672,-0.486788304448128,-0.0232398317009211,0.500585409523931
11.9381195417373,-0.0922592323645949,-0.167292932868004,-0.0568531356006861,0.199326291220483
11.948089541751,-0.0700892766751349,0.190584731698036,-0.206004497185349,0.289262682560065
11.9580595417647,-0.28540237672627,0.197685005664825,-0.50322599709034,0.61136755086713
11.968029541662,-0.112319677099586,0.0207090836763382,-0.627971153631806,0.638272939896508
11.9779985416681,0.301398056410253,-0.152707053422928,-0.771707408800721,0.842432523927534
11.9879685416818,0.5312097844854,-0.119604211449623,-0.809959893599153,0.975973376567549
11.9979385416955,0.396397367119789,0.0572436565160751,-0.789684015512467,0.885442574776436
12.0079085417092,0.0429999488219619,0.316408041715622,-0.78056235909462,0.843350840929423
12.0178775417153,-0.100933576785028,0.466752820014954,-0.81803014755249,0.947216503350359
12.027847541729,-0.0998097053915262,0.365063307881355,-0.704795746654272,0.799981400129761
12.0378175417427,-0.262381194345653,0.266907268166542,-0.437373338788748,0.575655121083444
12.0477875417564,-0.321022956669331,0.198745690584183,-0.171821016669273,0.414822914029306
12.0577575417701,-0.281753714159131,0.171960180401802,-0.0102864948660135,0.330244259697143
12.0677265416598,-0.222664310932159,0.0532400679588318,0.117590430378914,0.257374065352072
12.0776965416735,-0.179066155403852,-0.180053896307945,0.287815157175064,0.383825036033993
12.0876665416872,-0.259076603874564,-0.191533150076866,0.369285582304001,0.490079050308366
12.0976365417009,-0.0854194153100252,-0.261430181264877,0.485397251844406,0.557900267329381
12.107605541707,-0.0091896302998066,-0.310753784179688,0.494655660018325,0.584240178073374
12.1175755417207,0.187249845340848,-0.37136952996254,0.373840563297272,0.55922678685055
12.1275455417344,0.167652171179652,-0.443934060931206,0.284598530754447,0.553336267258629
12.1375155417481,0.0822270548343659,-0.473340877890587,0.259268319457769,0.545923929410885
12.1474845417542,0.183100441843271,-0.53329471886158,-0.0415386930853129,0.565379953652487
12.1574545417679,0.311441855281591,-0.528729212880135,-0.166920684501529,0.635934843115665
12.1674245416652,0.44597568936646,-0.51239150762558,-0.268227569460869,0.73033239118335
12.177394541679,0.401938188672066,-0.498112607002258,-0.371012849807739,0.739811470234159
12.1873645416927,0.396724080294371,-0.411588433384895,-0.41199130654335,0.704650176363381
12.1973335416988,0.382583539411426,-0.240252735614777,-0.386598749309778,0.594600819514103
12.2073035417125,0.370831659212709,-0.029852374792099,-0.329640436917543,0.497061466426806
12.2172735417262,0.359142636582255,0.167787607312202,-0.229008613005281,0.457800239634505
12.2272435417399,0.43816373616457,0.272425285577774,-0.159243217259645,0.539964256367983
12.237212541746,0.533623040020466,0.272335238456726,-0.157932198420167,0.619566469592886
12.2471825417597,1.00997830376029,0.0166920465230942,-0.322533657923341,1.06035973092958
12.257152541657,1.39403439134359,-0.312074085474014,-0.551955522894859,1.53146237901141
12.2671225416707,1.52603586941957,-0.53545234143734,-0.597988166660071,1.72426347527614
12.2770925416844,1.6980292327702,-0.582811279892922,-0.66545823790133,1.91462971085882
12.2870615416905,2.20376236975193,-0.632003320455551,-0.804421922564507,2.42962783341479
12.2970315417042,0.835417574197054,-0.358576991558075,-0.741773172989488,1.17334028411157
12.3070015417179,-0.618710991293192,0.379926930069923,-0.63717934884131,0.965994454191739
12.3169715417316,-0.739247979819775,0.951871159672737,-0.781862633675337,1.43661249410621
12.3269405417377,1.81646999448538,0.720267625451088,-0.732102682292461,2.0867014713558
12.3369105417514,2.01165458455682,0.181664219498634,-0.248004535585642,2.03500916604461
12.3468805417651,0.650630210638046,0.440891754627228,-0.739145945906639,1.0789077530741
12.3568505416624,-0.255134484171867,0.863854776620865,-0.811466647982597,1.21236001290559
12.3668195416685,-1.02556888103485,1.0767290943861,-0.380466043353081,1.53489135856234
12.3767895416822,-2.34857743620873,1.39436797499657,0.0174024832248688,2.73136977906456
12.3867596250493,-3.04529423117638,1.531947696805,0.150279874205589,3.41222284453602
12.396729625063,-1.61212442547083,0.867040924429894,0.045044756680727,1.83104728446327
12.4066996250767,-0.714480636119843,0.107836689949036,-0.374910019040108,0.814044749056238
12.4166686250828,-0.279395458996296,-0.367757120132446,-0.520119772553444,0.695580117396197
12.4266386250965,-0.0456082820892334,-0.507624272704125,-0.453162136673927,0.681995923557027
12.4366086249938,-0.106615791320801,-0.500496516823769,-0.280242428183556,0.583437664935939
12.4465786250075,-0.192097991108894,-0.386423771381378,-0.11100003361702,0.445584982623584
12.4565486250212,-0.301542957723141,-0.212010684013367,0.0342231684923172,0.370199825432008
12.4665176250273,-0.456481016278267,-0.00139631509780884,0.163122260123491,0.484753277107115
12.476487625041,-0.61936164021492,0.158935507535934,0.229103703349829,0.679233276433088
12.4864576250548,-0.769596198499203,0.268042212724686,0.258074464201927,0.854825927086844
12.4964276250685,-0.946460731029511,0.346514770388603,0.264846563190222,1.04211520644891
12.5063966250746,-1.1044144910574,0.417420446276665,0.267515963315964,1.21059323790291
12.5163666250883,-1.25113311856985,0.475537092089653,0.2531788828969,1.36219277383208
12.526336625102,-1.10252774074674,0.546958492398262,0.259202830642462,1.25774286677991
12.5363066249993,-1.32571742400527,0.576929565668106,0.454210542440415,1.51548065936757
12.5462756250054,-1.25144989147782,0.597364999651909,0.352434199154377,1.43079755326271
12.5562456250191,-1.19601989507675,0.532597730755806,0.227564131468535,1.32887522595489
12.5662156250328,-1.20831059619784,0.398830978274345,0.11926843509078,1.27800845291581
12.5761856250465,-1.09284650579095,0.198345741033554,-0.097829472720623,1.11500005557777
12.5861556250602,-0.857183542102575,0.0170428794622421,-0.315888370424509,0.913695544019634
12.5961246250663,-0.590741273760796,-0.204091799855232,-0.418868216872215,0.752382414998108
12.60609462508,-0.270754882246256,-0.342798864841461,-0.47957897990942,0.648702756251072
12.6160646250937,0.00813800856471062,-0.372485763430595,-0.466020894795656,0.596646751041198
12.626034624991,0.364903094172478,-0.501936686038971,-0.401162847876549,0.73893594813411
12.6360036249971,0.967548714280129,-0.734230776429176,-0.344967304766178,1.26263525569286
12.6459736250108,1.04037139981985,-0.420269794464111,-0.0689106059074402,1.12416547772494
12.6559436250245,1.12882135391235,0.0536400175094605,0.172223597466946,1.14314297795656
12.6659136250382,1.13518970265985,0.106474873423576,0.382736955732107,1.20269702626164
12.6758836250519,1.24030846059322,-0.00574839770793915,0.357763351500034,1.29088835193904
12.685852625058,1.46773415923119,0.0552795767784119,0.350999000072479,1.51013234249014
12.6958226250717,1.5844682648778,-0.0952762860059738,0.519281866550446,1.67011104720856
12.7057926250855,1.31747796624899,-0.082466790676117,0.530190432071686,1.42255082769522
12.7157626250992,1.96158531546593,0.504729900956154,0.918035661578178,2.22381624661303
12.7257316249888,2.38746931403875,1.19161811113358,1.42220393747091,3.02367780823553
12.7357016250025,1.72808172851801,1.31657544851303,1.30890638664365,2.53631096300545
12.7456716250163,0.337002812325954,0.779369527101517,0.629133068472147,1.05678577447618
12.75564162503,-1.33635014712811,0.00764406502246857,-0.362519769072533,1.38466989944455
12.7656116250437,-1.94062187790871,-0.806772503256798,-0.970063601732254,2.31471780924477
12.7755806250498,-1.34605360150337,-0.620122362971306,-1.47247625112534,2.08916211752593
12.7855506250635,-1.46198766186833,-0.677925598025322,-2.15420955598354,2.69028062681276
12.7955206250772,-1.27134475037456,-0.747513311505318,-2.24079337120056,2.68258244190164
12.8054906250909,-0.885538298785687,-0.324613439440727,-1.79004145681858,2.02331420713911
12.815459625097,-1.22046023324132,0.212873733043671,-1.34608590736985,1.82942222495604
12.8254296249943,-1.61919151648879,0.17537027657032,-1.08647786468267,1.95779724471638
12.835399625008,-1.4452963462472,-0.146823585033417,-0.729047950655222,1.62540752057819
12.8453696250217,-0.928906366378069,-0.36293959915638,-0.575870927274227,1.15161604496168
12.8553396250354,-0.278365325778723,-0.247921943664551,-0.634819193333387,0.736171143804724
12.8653086250415,-0.0241356982290745,-0.149810342788696,-0.585843207389116,0.605175953239584
12.8752786250552,-0.133770406991243,-0.0770838439464569,-0.388932226896286,0.418455156381982
12.8852486250689,-0.240882480740547,0.0248091512918472,-0.146484446525574,0.283015117245432
12.8952186250826,-0.248450239598751,0.204227455258369,0.168307863324881,0.362992991523215
12.9051876250887,-0.124531367719173,0.365170896649361,0.539496129602194,0.663260069023798
12.9151576251024,0.000890823304653168,0.595614928007126,0.841708447337151,1.03113095499544
12.9251276249997,0.100287349820137,0.690093069076538,1.07036849319935,1.27748765463908
12.9350976250134,0.138088137209415,0.304779683947563,0.925778544545174,0.984390625171392
12.9450676250272,0.261218219697475,0.225649314522743,1.01711614608765,1.07409395588966
12.9550366250332,0.390045244395733,-0.0646158260107041,1.30239945888519,1.36108590770429
12.965006625047,0.534183203279972,0.0503030115365982,1.44983583211899,1.54593209027184
12.9749766250607,0.405464936792851,0.505006474256516,1.79502109184861,1.90828039716149
12.9849466250744,0.226460908055306,0.61493822157383,2.25970662876964,2.35280845105059
12.9949156250805,0.129016620665789,0.4196979367733,2.62546824038029,2.6619307143097
13.0048856250942,-0.0116779129207134,0.0503989058732987,2.7603816318512,2.7608663815594
13.0148556249915,-0.0134594133496285,-0.50488660633564,2.42923275947571,2.48118186370423
13.0248256250052,0.0372552421689034,-0.950950223207474,1.62498566865921,1.88315498656782
13.0347946250113,0.22344900727272,-1.10104474067688,0.687591484040022,1.31719817368069
13.044764625025,0.370197017043829,-0.978936166763306,-0.0132123684883118,1.04667875525705
13.0547346250387,0.358859996795654,-0.776526610851288,-0.514015864133835,0.997991173929719
13.0647046250524,0.21445394307375,-0.524297023415566,-0.712465758696199,0.910211689540873
13.0746746250661,-0.0638938410580158,-0.192330710291863,-0.654522848278284,0.685181497097548
13.0846436250722,-0.399227273315191,0.114677932262421,-0.375313550010324,0.559815777491148
13.0946136250859,-0.509408112019301,0.214695725440979,-0.0587189821153879,0.555912581234104
13.1045836250996,-0.429039594680071,0.107986378669739,0.382945189699531,0.585135069958598
13.1145536249969,-0.265751712173224,-0.100858622789383,0.802602195963264,0.851449774959759
13.1245236250106,-0.175605334639549,-0.283709827065468,1.08183188639581,1.13211692415144
13.1344926250167,-0.277734557390213,-0.380304660201073,1.25374653160572,1.33927162459778
13.1444626250304,-0.570409043133259,-0.389077822566032,1.1195231115818,1.3153250647147
13.1544326250441,-0.938030800223351,-0.335237245559692,0.867353750467301,1.32082864953324
13.1644026250578,-1.0660924243927,-0.3448003667593,0.513480259180069,1.23251869228523
13.1743716250639,-1.01640804827213,-0.399550185799599,0.199854395762086,1.11025557916648
13.1843416250777,-0.714627985954285,-0.409981618523598,-0.108859952688217,0.831040657931721
13.1943116250914,-0.278681806325913,-0.263946238160133,-0.300563841462135,0.48751388555654
13.2042816249887,-0.0153936722874641,0.0432442528009415,-0.444174966216087,0.446540514578317
13.2142506249947,0.0177044919133186,0.356011818051338,-0.603332741037011,0.700762627451951
13.2242206250085,-0.0621684738993645,0.402646871209145,-0.744891420006752,0.849030417382773
13.2341906250222,-0.125915403664112,0.367240226268768,-0.802917360886931,0.891849965567902
13.2441606250359,-0.158588767647743,0.300343986153603,-0.808949348554015,0.877357370612814
13.2541306250496,-0.0944240543246269,0.273711088299751,-0.767206076011062,0.820023673415363
13.2640996250557,0.0547585898637772,0.297008734345436,-0.66333796441555,0.728855230122082
13.2740696250694,0.213984119296074,0.273101808428764,-0.595563472509384,0.689252965800956
13.2840396250831,0.260885805487633,0.223499293327332,-0.576125573515892,0.670771208447234
13.2940096250968,0.410357594490051,0.118732976317406,-0.533414586782456,0.683390076320361
13.3039786251029,0.465549755394459,0.0372403317689896,-0.477822768688202,0.668160171916109
13.3139486250002,0.49610671967268,-0.00262247622013092,-0.401783749088645,0.63840342708795
13.3239186250139,0.551040726006031,0.023049139380455,-0.281084354147315,0.61901983707297
13.3338886250276,0.516222310960293,0.0621138024330139,-0.12699677310884,0.535230585043429
13.3438586250413,0.453942739963532,0.076005032658577,0.0266551172733307,0.461032831186549
13.3538276250474,0.489455511868,0.0424472773075104,0.0886297194287181,0.49922309303036
13.3637976250611,0.58503000587225,-0.0843747371435166,0.0588615079969168,0.594006633938202
13.3737676250748,0.503517480790615,-0.109487358927727,0.043669930100441,0.517130929283556
13.3837376250885,0.35122090190649,-0.0605350542068482,0.0624388710781932,0.361827621037081
13.3937065417413,0.323160698711872,-0.0864078140258789,0.0928490702435374,0.347160045745137
13.403676541755,0.331576888561249,-0.0870241105556488,0.136709034852684,0.36906068478817
13.4136465417687,0.256503024995327,-0.074414005279541,0.183519541025162,0.324053495508971
13.423616541666,0.180390403568745,-0.0810669672489166,0.155919513702393,0.251840119186404
13.4335865416797,0.151035919189453,-0.0857394772768021,0.0934530876204372,0.197222175312249
13.4435555416858,0.218459870517254,-0.0777586126327515,-0.0175855376198888,0.232551860879173
