Time (s),Linear Acceleration x (m/s^2),Linear Acceleration y (m/s^2),Linear Acceleration z (m/s^2),Absolute acceleration (m/s^2)
0.00514366663992405,0.799693717807531,-1.3601524078846,-1.88364251554012,2.45715968982999
0.0151176666840911,-0.0427162492275238,-1.38325358748436,-2.39091946363449,2.7625551662949
0.0250916666118428,-0.341089431345463,-1.19072874963284,-2.36205234467983,2.66710859066241
0.0350656666560099,-0.047563152462244,-1.12358985006809,-2.10623198211193,2.38766194573674
0.0450406665913761,0.239581182897091,-0.932267199754715,-2.1777229642868,2.38096589310283
0.0550146666355431,0.390957848578692,-0.645491677522659,-2.44583183526993,2.5596095232547
0.0649886666797102,0.437378601282835,-0.734424319267273,-2.57898755371571,2.71695710746634
0.0749626666074619,0.244575874507427,-0.845997380018234,-2.5501262819767,2.69790158816386
0.0849366666516289,0.184897729754448,-0.747322692275047,-2.63421275138855,2.74440434273735
0.0949116667034105,0.377857015728951,-0.547482987642288,-2.76246499478817,2.84143034289481
0.104885666631162,0.391899542659521,-0.498611374497414,-2.78736770153046,2.85860407504259
0.114859666675329,0.0779226270318031,-0.611898254156113,-2.89767834842205,2.96260547831749
0.124833666603081,-0.413225215226412,-0.755802324414253,-3.10080886602402,3.21823054731976
0.134807666647248,-0.929496935158968,-0.91329590857029,-2.9647751480341,3.23851287591724
0.144781666691415,-1.50563434928656,-1.0592026501894,-2.47523748278618,3.08474401597758
0.154756666626781,-2.116396343261,-1.13044454097748,-2.13008745253086,3.20847485535164
0.164730666670948,-2.51378349781036,-1.13316115736961,-2.04405327558517,3.43239209238476
0.1747046665987,-2.61257162153721,-1.056396279037,-1.90338973224163,3.40064641631964
0.184678666642867,-2.49694731742144,-0.740040277540684,-1.7659731477499,3.14659604603678
0.194652666687034,-1.91642434537411,-0.272074744999409,-1.55190073549747,2.48094797028206
0.204626666614786,-1.56959221735597,0.0246115154027939,-1.16800530016422,1.95664555724499
0.214601666666567,-1.54013935357332,0.258881379961968,-0.575974130630493,1.66457051411823
0.224575666594319,-1.573760843575,0.415714521110058,0.158868264555931,1.63547573547108
0.234549666638486,-1.69598329201341,0.418559483885765,0.887286323904991,1.95929282878496
0.244523666682653,-2.0122201564908,0.361625145077705,1.57651809811592,2.58170719048993
0.254497666610405,-2.34410022318363,0.419272259473801,1.76649354994297,2.96497800091062
0.264471666654572,-2.32121714472771,0.669482510983944,1.61471971213818,2.9057831326957
0.274446666589938,-2.05198326945305,0.901654979288578,1.6190045517683,2.76492183948075
0.284420666634105,-1.90398965656757,1.03655346035957,1.60845442056656,2.69939721262726
0.294394666678272,-1.8127362549305,1.03328691333532,1.76348457276821,2.73195395524906
0.304368666606024,-1.55335011407733,0.970556522011757,2.34890897333622,2.97863222038959
0.314342666650191,-1.11428605288267,0.877434934973717,3.22693038403988,3.52485534117372
0.324316666694358,-0.962988032251597,0.458480179309845,3.8787370544672,4.02270445879096
0.334291666629724,-1.23616541594267,-0.162245908677578,3.50150978386402,3.71685343226644
0.344265666673891,-1.12916970178485,-0.865702789127827,3.36989539146423,3.65795851315245
0.354239666601643,-0.796796568632126,-1.47226019650698,3.49163208246231,3.87219956320472
0.36421366664581,-1.05841722294688,-1.87585285484791,3.17739978969097,3.83861177698395
0.374187666689977,-0.814219078570604,-2.08500892817974,3.04428032398224,3.77860524922662
0.384161666617729,-0.177260242849588,-2.71772151589394,2.91130937755108,3.98662184354935
0.39413666666951,-0.10100151412189,-3.11606015861034,2.92558009207249,4.27540069386069
0.404110666597262,-0.232601050939411,-3.31691727876663,2.83108616352081,4.36704618115698
0.414084666641429,-0.449847277030349,-3.61583863735199,2.4188182836771,4.37348070916859
0.424058666685596,-0.365375622287393,-3.42467649310827,2.00958218514919,3.98752165971287
0.434032666613348,-0.0705837866663933,-2.84329982757568,1.35819008231163,3.15182745088016
0.444007666665129,0.735439030453563,-2.01313012942672,0.973959601521492,2.35417943048443
0.453981666592881,1.46051255553961,-0.984771834164858,1.1715978294611,2.11554105709419
0.463955666637048,1.76993931412697,-0.138851929754019,1.18093290925026,2.1322681750284
0.473929666681215,1.97041841179132,0.749744170457125,1.32287699282169,2.48890911380823
0.483903666608967,2.4970657235384,2.13286093309522,1.7556779551506,3.72382035949587
0.493877666653134,3.82176236987114,4.52696639835835,2.40247531592846,6.39305717378424
0.5038526665885,5.2983889746666,5.31099557161331,2.71768701732159,7.97906149949247
0.513826666632667,6.81085024058819,5.21837333679199,2.72584154427052,9.00273921683467
0.523800666676834,8.36147862195969,6.91229709327221,2.53396516263485,11.1406981512199
0.533774666604586,9.28814243495464,7.98058456242085,1.46235121250153,12.3327933137088
0.543748666648753,9.11856850326061,7.18153506159783,0.616922766566277,11.6233958501603
0.55372266669292,6.86779451966286,5.4553042691946,0.538342035412789,8.78730666250453
0.563697666628286,3.8938339805603,3.12934971034527,0.527599530816078,5.02325929479272
0.573671666672453,1.217544811517,0.495528868585825,0.134461401700974,1.32137961850534
0.583645666600205,-0.701139117255807,-1.26178089827299,-0.262697272896767,1.46720719538184
0.593619666644372,-1.95771694377065,-1.84774616628885,-0.63383876144886,2.76560537721434
0.603593666688539,-1.90587172910571,-3.06843195587397,-1.13541525900364,3.78639532088387
0.613567666616291,-2.32278098255396,-3.63926696866751,-1.46082508921623,4.55780489966742
0.623542666668072,-3.19369539499283,-2.25316286355257,-1.60400761306286,4.22484006661251
0.633516666595824,-2.07580555692315,-1.44243223384023,-1.89694025337696,3.16037367794636
0.643490666639991,-1.01297178581357,-1.52711760431528,-2.55311011612415,3.14270127140959
0.653464666684158,-0.0803595272451639,-0.958987221121788,-2.60539474904537,2.77744413845664
0.66343866661191,1.06052024714649,-0.380942737609148,-2.81534896731377,3.0324924355552
0.673412666656077,0.99001897931099,1.41324980378151,-3.09201289951801,3.54089767687097
0.683387666591443,1.19148589096963,2.32464697524905,-3.39120907723904,4.28064495064268
0.69336166663561,1.19012253955007,1.91204624265432,-3.82191673636437,4.43614247211422
0.703335666679777,0.909449463933706,1.28586967259645,-4.16031732559204,4.44846033948533
0.713309666607529,0.595134031064808,0.974378554522991,-4.32365812540054,4.47186959422878
0.723283666651696,0.218786876052618,0.989566989541054,-4.19589470922947,4.31655452124285
0.733257666695863,0.0930230614542961,0.781033206135035,-3.8326370215416,3.91251488149747
0.743232666631229,-0.0418381253443658,0.559656525179744,-3.48814012527466,3.53299977193032
0.753206666675396,-0.283754722718149,0.43039081312716,-3.25278033971787,3.29337713193375
0.763180666603148,-0.639277183637023,0.679134071320295,-2.94540800035,3.08955121221072
0.773154666647315,-0.931264402270317,1.31741393923759,-2.79386103451252,3.22621951429235
0.783128666691482,-0.56533212505281,1.20650417201221,-2.5768626755476,2.90094363566925
0.793102666619234,0.0947965950518847,0.685578068420291,-1.83607717037201,1.96218833395105
0.803076666663401,0.59054787710309,0.952750434726477,-1.23571547269821,1.66837433314236
0.813051666598767,0.740871970877051,0.940505853518844,-0.873982738852501,1.48232532378914
0.823025666642934,0.830686007291079,0.869487253278494,-0.609099776744843,1.3479799198629
0.832999666687101,0.689740847423673,0.994039013162255,-0.616319918632507,1.35783144697584
0.842973666614853,0.785980681478977,0.724448311552405,-0.690919280648232,1.2727766654605
0.85294766665902,0.960209435373545,0.622606333270669,-0.536481451392174,1.26390393372953
0.862922666594386,0.779095365777612,1.08607045993209,-0.539215609431267,1.44128141123362
0.872896666638553,0.313951991870999,1.19053798422217,-0.612244994044304,1.37506017243169
0.88287066668272,0.319015534445643,1.28645454034209,-0.261017367839813,1.35087610901165
0.892844666610472,0.296975807212293,1.40053824931383,-0.147457423210144,1.43925178808999
0.902819416602142,0.371702419258654,1.5280376636982,0.108832470774651,1.57635855593133
0.912793416646309,-0.23370140556246,1.2209451135993,0.54015876531601,1.35539470602906
0.922767416690476,-0.164244377352297,0.833210835009813,0.785264105200768,1.1566573502928
0.932742416625843,-0.169543453082442,0.458191911578178,1.0142381465435,1.12577254728599
0.94271641667001,-0.548611756078899,1.63112539127469,1.97668516516685,2.62084512002516
0.952690416597761,1.17776803068817,2.03248587504029,2.27079777359962,3.26720964967576
0.962664416641928,2.8495046004653,2.69825379610062,2.10369604468346,4.45261575533541
0.972638416686095,3.66340515196323,3.78544940650463,1.9071910071373,5.60245857230042
0.982612416613847,3.95191525071859,3.97507987260819,1.77064624249935,5.87827204700106
0.992587416665629,3.80811526089907,4.17479561626911,1.95763844490051,5.98021810295115
1.00256141659338,2.46659880638123,3.43282751172781,2.27547671556473,4.8006466939355
1.01253541663755,0.197940602079034,2.24728904306889,2.81475313603878,3.60725986614342
1.02250941668171,-1.66065850809217,1.372525408566,3.29691336929798,3.938432485433
1.03248341660947,-2.53756120026112,0.548734145611525,3.62410835444927,4.45808113120653
1.04245741665363,-2.89174371689558,-0.175910705476999,4.16053542673588,5.06983050383647
1.052432416589,-3.02375981301069,-0.814382215887308,4.80145107328892,5.73238817680025
1.06240641663317,-2.73804585278034,-1.28219659790397,5.23639913320541,6.04655266162783
1.07238041667733,-1.95036494717002,-1.64218291461468,5.09375455319881,5.69622889291113
1.08235441660509,-0.928242488130927,-1.7325304363668,4.74880742132664,5.13950073008612
1.09232841664925,0.181008381173015,-1.52590065255761,4.09077463567257,4.36984827601516
1.10230241669342,0.713759528249502,-1.27139474406838,3.13203124344349,3.45478175422382
1.11227741662879,0.320038577914238,-1.42680160313845,1.96356986045837,2.44822264162644
1.12225141667295,-0.626421641483903,-1.74091154292226,0.707638809084892,1.98089115231565
1.1322254166007,-1.59338439166546,-1.93419578790665,-0.405105040669441,2.5385226529489
1.14219941664487,-2.2850589863956,-1.87801413193345,-1.38919903635979,3.2677676804926
1.15217341668904,-2.87671695739031,-1.74447352051735,-2.26467983186245,4.05554719582545
1.16214741661679,-3.1622131088376,-1.52365853771567,-2.83252340912819,4.51046737584005
1.17212241666857,-2.93456083059311,-1.126189083606,-2.74390710175037,4.1724064163886
1.18209641659632,-2.31664696097374,-0.818768066167832,-2.15551348507404,3.26855819472457
1.19207041664049,-1.76541283831,-0.697252399921417,-1.49527863800526,2.416340539771
1.20204441668466,-1.21581432804465,-0.596937714368105,-0.800682628154755,1.57341405425987
1.21201841661241,-0.582940210998058,-0.52222798615694,-0.0409895664453507,0.783722848768219
1.22199241665658,-0.0485155177116394,-0.469233501255512,0.810995947122574,0.938215465875817
1.23196741659194,0.321266639381647,-0.436216905713081,1.64268752932549,1.72971667084842
1.24194141663611,0.717193305641413,-0.430254499912262,2.07995810329914,2.24180973408346
1.25191541668028,1.02718190856278,-0.315241229832172,2.023220230937,2.29082950241557
1.26188941660803,1.29568934038281,-0.155546461343765,1.71263133823872,2.15316317754497
1.2718634166522,1.58069549515843,0.0186292290687561,1.19312435388565,1.98052796507015
1.28183741669636,1.70184673368931,0.16023899808526,0.432605080604553,1.76326571940851
1.29181141662411,1.68766577392817,0.22166575267911,-0.552361904382706,1.78954048398259
1.3017864166759,1.50768642961979,0.0843286903202534,-1.58663612008095,2.19035245465572
1.31176041660365,1.21082117132843,-0.0675610685348511,-2.56979748487473,2.84156849647992
1.32173441664781,0.77497044749558,-0.119562111496925,-3.32676048159599,3.41792474974302
1.33170841669198,0.365712787359953,-0.298875311762095,-3.80337463080883,3.83258801296196
1.34168241661973,0.136180044561625,-0.425591637790203,-4.40168103218079,4.42430436970083
1.3516564166639,-0.0608762392401695,-0.485431896597147,-4.89225950181484,4.91666076477069
1.36163141659927,-0.214850018844008,-0.42833178922534,-5.2129067748785,5.2348854520259
1.37160541664343,-0.22742270193994,-0.319353138059378,-5.44334788262844,5.45744845907514
1.3815794166876,-0.21286700874567,-0.24499628931284,-5.59752375662327,5.60692498176597
1.39155341661535,-0.325675439983606,-0.187996023148298,-5.64262508511543,5.65514145252814
1.40152741665952,-0.545882166177034,-0.16883498981595,-5.58753320395947,5.61667338363963
1.41150141670369,-0.74905156776309,-0.168994034081697,-5.59295006453991,5.64541651777444
1.42147541663144,-0.519007412865758,-0.286997424066067,-5.46633328735828,5.4984121184676
1.43145041668322,-1.17258849397302,0.527903586030006,-4.86122189640999,5.02843159429232
1.44142441661097,-0.728989039957523,0.474674335420132,-4.4917275685072,4.57518931791596
1.45139841665514,-0.681214072108269,0.530642056390643,-4.13511465668678,4.22431140281995
1.46137241669931,-0.613172289356589,0.887172230109573,-3.660414301157,3.81597794522283
1.47134641662706,-0.501017430648208,0.963676249533892,-3.03660819232464,3.22500847958919
1.48132041667122,-0.259394400045276,1.14772474430501,-2.27990656614304,2.56564445974242
1.49129541660659,-0.214965976439416,1.31040839016438,-1.55434194803238,2.04434816297343
1.50126941665076,-0.659519294053316,1.34969860956073,-0.903619936108589,1.75304906514668
1.51124341669492,-1.37708345934749,1.35375526160002,-0.302770580649376,1.95465653935031
1.52121741662268,-1.9382294896245,1.33925489768386,0.340935941934586,2.38045679480285
1.53119141666684,-2.06272811293602,1.43345193386078,1.01049592852592,2.70753277656121
1.54116541659459,-2.1003572845459,1.68780888453126,1.53228332698345,3.09969220207413
1.55113941663876,-1.94273476928473,1.81014637693763,1.93638966321945,3.28640429916213
1.56111441669054,-1.82475856885314,1.71603748753667,2.3902967351675,3.46237591479992
1.5710884166183,-1.79885335698724,1.5707205837965,3.04330383896828,3.86842795054856
1.58106241666246,-1.73429848819971,1.47077427282929,3.81064271986485,4.43756308645266
1.59103641659021,-1.51401984125376,1.35670401245356,4.65425502061844,5.07887700718078
1.60101041663438,-0.880722093433142,1.37434842422605,5.45022596240044,5.68941719671335
1.61098441667855,-0.123094597198069,1.52789937704802,6.13162480652332,6.32032052622454
1.62095941661391,0.19788666151464,1.57177512913942,6.66158076524735,6.84735675128002
1.63093341665808,0.211144090108573,1.58359293669462,7.03731056392193,7.21637640294795
1.64090741670225,0.256951762251556,1.45498167425394,7.35661239266396,7.50351529460931
1.65088141663,0.29478408806026,1.26196947097778,7.76361777842045,7.87103713710331
1.66085541667417,0.301999077089131,0.872069822251797,7.8083559948206,7.86270516802555
1.67082941660192,-0.167896950244904,0.0176679468154907,7.46500515282154,7.46691391900954
1.68080341664609,-0.807411019206047,-1.04717733956873,6.69563611865044,6.82495684732276
1.69077841669787,-1.32689826920629,-2.43441894739866,5.95144694924355,6.56557502568789
1.70075241662562,-1.8844488465786,-4.01812298119068,5.65692971348763,7.19008438967745
1.71072641666979,-1.91594794347882,-5.21576606333256,5.51735199809074,7.83046902939845
1.72070041659754,-1.39742723822594,-5.68047001898289,5.21915627896786,7.83965144550374
1.7306744166417,-0.676832826510072,-5.1939822614193,4.479071854949,6.89185309541463
1.74064841668587,0.575089958533645,-3.85619369924068,2.97502180874348,4.90425458851486
1.75062241661362,1.66624932333827,-2.63482086181641,0.961476965546608,3.26237731365716
1.76059741666541,2.12246765345335,-1.60960471406579,-1.00353540301323,2.84653817480102
1.77057141659316,2.05175581276417,-0.804892184883356,-2.68114542782307,3.47074835584984
1.78054541663732,1.99669784545898,-0.241763948500156,-3.75104555904865,4.25624187269868
1.79051941668149,2.23951414659619,0.0580961805582047,-4.11356649756432,4.68403972110437
1.80049341660924,2.45892316639423,-0.152466440498829,-3.93952646255493,4.64644142359281
1.81046741665341,2.47244836091995,-0.595136333405972,-3.21569963693619,4.0997453954785
1.82044241658878,2.1351208819449,-1.01721905708313,-2.0424493843317,3.12491204326893
1.83041641663294,1.51334565728903,-1.46226847440004,-0.801105381846428,2.25171357025779
1.84039041667711,0.802664103358984,-1.73657904848456,0.338317558765411,1.94279057672865
1.85036441660486,0.431459793783724,-1.6471089014411,1.27711960673332,2.12841719988377
1.86033841664903,0.393921107836068,-1.43027455687523,1.75553177475929,2.29842358137767
1.8703124166932,0.475725847519934,-1.16146803997457,1.85695757746696,2.24134212792088
1.88028641662095,0.475658056363463,-0.793890356272459,1.62750523388386,1.87224084206205
1.89026141667273,0.527347260005772,-0.497639421075583,1.18173690140247,1.38644950509579
1.90023504162673,0.496044373735786,-0.303478386104107,0.610107252001762,0.842846374194267
1.9102090416709,0.339360300041735,-0.1148684053123,-0.200170072317123,0.410400075091184
1.92018304159865,0.198122413940728,-0.0435249191522598,-1.19019197523594,1.20735406878386
1.93015704164281,0.00833158794790507,-0.153130099475384,-2.13559962272644,2.14109878130655
1.94013104168698,-0.215822410807014,-0.0917249795794487,-3.02471086263657,3.03378782834875
1.95010504161473,-0.371366606354713,-0.172598696351051,-4.00308335781097,4.02397562565688
1.96008004166652,-0.485554541945458,-0.233569806665182,-4.63314657211304,4.66437190053197
1.97005404159427,-0.617014860212803,-0.212014777064323,-5.12148088037968,5.16286974574332
1.98002804163843,-0.643384121730924,-0.256536061763763,-5.45047154545784,5.49430559278662
1.9900020416826,-0.707523326575756,-0.314543218463659,-5.59181687414646,5.64516985111338
1.99997604161035,-0.88503770403564,-0.349621834605932,-5.66472229778767,5.74409312910669
2.00995004165452,-0.997667868286371,-0.38143887385726,-5.65860727965832,5.75853046664708
2.01992404169869,-0.943908859938383,-0.424200000464916,-5.56393208742142,5.65935065618859
2.02989904163405,-0.589053182601929,-0.384372568130493,-5.2565790438652,5.30342805810237
2.03987304167822,-0.0771412014774978,-0.126616338640451,-4.85055423617363,4.85281968140565
2.04984704160597,0.716573646962643,0.231551786363125,-4.36231874585152,4.42684073145814
2.05982104165014,1.60695987224579,0.586026663780212,-3.78828472137451,4.15654284374276
2.06979504169431,2.18041209876537,0.871290242224932,-3.30513221561909,4.05428693722607
2.07976904162206,2.46695460945368,0.988406609594822,-2.92491117060185,3.95195116707013
2.08974404167384,2.61300782382488,1.00516092896461,-2.51321164011955,3.76223220023957
2.09971804160159,2.57952842116356,1.12091898813844,-2.14422075748444,3.53668049311597
2.10969204164576,2.40293432235718,1.12831264615059,-2.00825135886669,3.32870189494575
2.11966604168993,2.01785935744643,1.08030729800463,-1.93434664607048,2.99675110606809
2.12964004161768,1.35232152432203,1.05865783587098,-1.74786490559578,2.45042070812525
2.13961404166184,0.575163669995964,1.07321871846914,-1.56174686193466,1.98031939992481
2.1495880415896,0.0965142511948943,1.32428763359785,-1.20329500079155,1.79191841223696
2.15956304164138,0.0691628036275506,1.76094702735543,-0.713231670856476,1.90116210325955
2.16953704168554,0.573438558652997,2.11232551172376,-0.250363156199455,2.20305073886445
2.1795110416133,1.15494072005153,2.15595275714994,0.201443011164665,2.45409854012479
2.18948504165746,1.50725008115172,1.97056663870811,0.877686949968338,2.63159078636212
2.19945904170163,1.47875981524587,1.62564611166716,1.74978980898857,2.80913158239424
2.20943304162938,1.30043157845736,1.55772090777755,2.61740200638771,3.31185899153614
2.21940704167355,1.43878488689661,1.97539307668805,3.36856807351112,4.16167401703541
2.22938204160891,2.2046529006958,2.74982214510441,3.77641253471375,5.1655888216733
2.23935604165308,3.35933619707823,3.49207442432642,4.01366564869881,6.29199772803356
2.24933004169725,4.2507012462616,3.84370404660702,4.22101317822933,7.11754691826185
2.259304041625,4.50492064118385,3.88268480211496,4.42763565301895,7.41441223104188
2.26927804166917,3.90085882544518,3.20264631271362,4.53154593765736,6.78296038360026
2.27925204159692,2.00593293786049,2.12812863528729,4.75924177765846,5.58597178096462
2.28922604164109,-0.247622566223145,1.12603749454021,4.99387300014496,5.12523608392727
2.29920004168525,-1.98302559345961,-0.0779790526628494,4.94236487746239,5.32592168727102
2.30917504162062,-3.45054048210382,-1.39037637323141,5.02356106817722,6.25104326361475
2.31914904166479,-4.20864544004202,-2.37013816684485,5.31828704953194,7.18431823565328
2.32912304159254,-4.08125302970409,-2.72396224915981,5.45065047025681,7.33390667899636
2.33909704163671,-2.8062091845274,-2.53542404294014,5.10474614918232,6.35307943539482
2.34907104168087,-1.02775778621435,-2.06831585839391,4.19813653171063,4.79150987644722
2.35904504160862,0.0637501457333565,-1.71289884835482,3.16517384648323,3.59950163553758
2.36902004166041,0.0902549895644188,-1.51396414652467,2.08810795247555,2.58078054496989
2.37899404158816,-0.893953757733107,-1.57761985972524,0.94638822555542,2.04540666280194
2.38896804163232,-2.25433230668306,-1.63472157508135,0.0226006579399109,2.78475125760466
2.39894204167649,-3.14402037441731,-1.56934122562408,-0.67497977077961,3.57816904130536
2.40891604160424,-3.6129951363802,-1.5434003457427,-1.25179999351501,4.12344779359577
2.41889004164841,-3.15928803920746,-1.29824296563864,-1.54680079400539,3.74955042756398
2.42886404169258,-2.74067885398865,-1.22312071636319,-1.38027676999569,3.30340866822243
2.43883804162033,-2.12512404352427,-1.0382943226397,-0.823547580242157,2.50448356307513
2.44881304167211,-1.48627845749259,-0.945323155224323,-0.111346773505211,1.76495258434323
2.45878704159986,-0.893036475777626,-1.00818832486868,0.570249121785164,1.46258056406052
2.46876104164403,-0.378401391506195,-1.00266022101045,1.33665946483612,1.71323485162616
2.4787350416882,-0.121094812899828,-0.861232738941908,1.89251625001431,2.08278744496524
2.48870904161595,0.132475102543831,-0.580504991859198,2.0475709605217,2.13238892717515
2.49868304166012,0.537093654870987,-0.259310419410467,1.70666542410851,1.80787675397549
2.50865704158787,0.956019028276205,-0.073890533298254,1.12058204233646,1.47483433203334
2.51863204163965,0.988811383098364,-0.0664321173727513,0.390037935376167,1.06503087682754
2.52860604168382,0.834598086923361,-0.192218882292509,-0.335522004961968,0.9198244839205
2.53858004161157,0.889098083674908,-0.359079852104187,-1.06941481232643,1.43634319833553
2.54855404165573,0.898941578865051,-0.371514833271504,-1.90167766749859,2.13600027729774
2.5585280416999,0.714579161703587,-0.378743307441473,-2.81728439569473,2.93106827581647
2.56850204162765,0.405096562206745,-0.431340766400099,-3.62688578188419,3.67484129675066
2.57847604167182,0.195685111731291,-0.472921778708696,-4.20263888776302,4.23368885165978
2.58845104160719,0.179369187355042,-0.52092288762331,-4.59443391144276,4.62734880107794
2.59842504165135,0.148997799083591,-0.585219163298607,-4.87769408762455,4.91493452913375
2.60839904169552,0.136829524040222,-0.606466483175755,-5.01725601553917,5.05562872839063
2.61837304162327,0.0644577319175005,-0.622367986142635,-4.98129856288433,5.02044142301976
2.62834704166744,-0.217578841298819,-0.69050675958395,-4.92804913938046,4.98094453466012
2.63832104159519,-0.282489951699972,-0.558428829163313,-5.01044459402561,5.04937603668539
2.64829504163936,-0.405417720526457,-0.364865818172693,-5.01004464447498,5.03964660794982
2.65827004169114,-0.429281815588474,-0.218874584287405,-4.94239352881909,4.96582749947626
2.66824404161889,-0.299653576165438,0.0109854564070702,-4.70907734513283,4.71861445642727
2.67821804166306,-0.314022231549025,0.199986615926027,-4.52737394928932,4.54265555431624
2.68819204159081,-0.3819883659482,0.347270084470511,-4.25718580842018,4.28837295844265
2.69816604163498,-0.407918063029647,0.477330871671438,-3.62349147319794,3.6774899542398
2.70814004167914,-0.461724872365594,0.583705903887749,-2.8796513825655,2.97427210004495
2.7181140416069,-0.420430446714163,0.648941388577223,-2.14204910159111,2.27733639148021
2.72808804165106,-0.385611885488033,0.69061259418726,-1.49750818133354,1.69356813699378
2.73806304170284,-0.604533393681049,0.683156663328409,-0.957514307498932,1.32249661617363
2.7480370416306,-0.951748587414622,0.701026046723127,-0.473830874562264,1.27349071041701
2.75801104167476,-1.21273211449385,0.816825182586908,-0.110500096678734,1.46633312442939
2.76798504160251,-1.40089478328824,0.852507231384516,0.157642103433609,1.64746041111223
2.77795904164668,-1.71995219841599,0.923688164949417,0.391161185503006,1.99109077240284
2.78793304169085,-2.13261681184173,0.841878455132246,0.640303443074226,2.38050463107689
2.7979070416186,-2.37763751327992,0.72136558637023,1.01423580765724,2.68369199560779
2.80788204167038,-2.25861012965441,0.665319878160954,1.47389946341515,2.77783186789789
2.81785604159813,-2.19303214430809,0.52728875130415,1.79886022746563,2.88501672979172
2.8278300416423,-2.10253040224314,0.776411859244108,2.11619973063469,3.0824910003875
2.83780404168647,-1.69214181751013,1.63612987697125,2.26765138685703,3.26841057965474
2.84777804161422,-0.672653309851885,2.70504124403,2.29432112216949,3.61021052277996
2.85775204165839,0.920317829847336,3.66856531977654,2.60351896226406,4.59169548209271
2.86772604170255,2.35971725910902,4.23248190701008,3.40262459635735,5.9211504608345
2.87770004163031,2.6992264804244,4.32890220075846,4.6970513767004,6.93451580802286
2.88767504168209,1.92331002652645,3.83157984495163,6.16507088005543,7.5092093140679
2.89764904160984,0.53813774831593,2.93665588796139,7.43505512952805,8.01208991584481
2.90762304165401,-0.454763835221529,2.00730162486434,8.59468663215637,8.83768681635505
2.91759704169817,-0.556757402569056,0.700912464559078,9.33268652379513,9.37551571060051
2.92757104162592,-0.636056756526232,-0.713286488503218,9.69939114511013,9.7463600589166
2.93754504167009,-0.901122955754399,-2.11811147779226,9.55194073855877,9.82537483695566
2.94751904159784,-0.742552826106548,-3.18385131508112,8.43940855801106,9.05051991352612
2.95749404164962,-0.0168579978123307,-3.90923847019672,6.39320760011673,7.49369955543633
2.96746804169379,0.682197573781014,-4.36883722186089,4.03430105745792,5.98562588398206
2.97744204162154,0.760340494662523,-4.52193779289723,1.75504119336605,4.90980739551641
2.98741604166571,0.583314505890012,-4.16049011081457,-0.508651628494263,4.23186250416261
2.99739004159346,0.691480028629303,-3.42379736423492,-2.8109588778019,4.48352794504824
3.00736404163763,1.0274289534241,-2.54041814982891,-4.51192560553551,5.2789020923106
3.0173380416818,1.10677303858101,-1.99702265828848,-5.58175030767918,6.03067015794464
3.02731204160955,1.77836032792926,-1.33118427827954,-6.05184598088265,6.44666245548941
3.03728704166133,2.18683526515961,-1.13165579169989,-5.07779516279697,5.64330550503497
3.04726104158908,2.12971425399184,-1.27988490119576,-2.89785259544849,3.81724217582701
3.05723504163325,1.95858569383621,-1.56663864254952,-0.479362340569496,2.55346877991205
3.06720904167742,1.74724583163857,-1.74870091125369,1.58517139256001,2.9365951741751
3.07718304160517,1.42764681816101,-1.62417699873447,3.18924390971661,3.85323280847237
3.08715704164933,1.18980956733227,-1.41750043720007,4.13205597817898,4.52756456638472
3.0971310416935,0.901598846018314,-1.04095729082823,4.36916232705116,4.58105359067029
3.10710604162887,0.597459797635675,-0.6765177346766,3.91453020036221,4.0172355102322
3.11708004167303,0.0205743099236861,-0.557019065469503,2.91229404866695,2.96515601063862
3.12705404160079,-0.728889271840453,-0.547124407142401,1.69574457943439,1.92514268722507
3.13702804164495,-1.14661874346435,-0.425313310325146,0.540522462129593,1.33708282722879
3.14700204168912,-1.03919201642275,-0.182781183868647,-0.504908241033554,1.16972703655032
3.15697604161687,-0.706769401207566,-0.209503397941589,-1.5709562265873,1.73531499333284
3.16695004166104,-0.418090610280633,-0.2202492646873,-2.44120610296726,2.48652302104057
3.17692404158879,-0.1334161388129,-0.321105110049248,-3.31326159954071,3.3314577567165
3.18689904164057,-0.00323270626366139,-0.545021602213383,-4.17117969810963,4.20663750175731
3.19687304168474,-0.139617549553514,-0.669384570121765,-5.02210160315037,5.0684389386897
3.20684704161249,-0.319981567561626,-0.851813605427742,-5.85599466204643,5.92626763687629
3.21682104165666,-0.569889371842146,-0.965440208315849,-6.63069577217102,6.72480297964619
3.22679504170083,-0.949546160548926,-0.94845112323761,-7.28967112898827,7.41218608866433
3.23676904162858,-1.11034137502313,-0.840153965055943,-7.85942265272141,7.98180688116405
3.24674304167274,-0.956563842594624,-0.660994692742825,-8.22431814551354,8.30610241493667
3.2567170416005,-0.504232522174716,-0.482311529964209,-8.16782644093037,8.197576691774
3.26669204165228,0.053620356246829,-0.223837554752827,-7.47773629546166,7.4812778653106
3.27666604169644,0.384851016551256,0.0287330715358257,-6.58933607697487,6.60062768452084
3.2866400416242,0.726654027476907,0.290431201457977,-5.66829670071602,5.72205940599858
3.29661404166836,1.23885981291533,0.664339300096035,-4.57444345057011,4.78556717894258
3.30658804159611,1.76022065699101,1.00243071779609,-3.53529090285301,4.07449700859803
3.31656204164028,2.16478424549103,1.23334515765309,-2.47848327219486,3.51430084625409
3.32653604168445,2.44622710704804,1.29477205842733,-1.43573585629463,3.11797998575854
3.33651104161982,2.57419079035521,1.19926816955209,-0.402014202475548,2.86815581631166
3.34648504166398,2.39757081761956,1.05835714280605,0.272662097811699,2.63492130562046
3.35645904159173,2.13662683233619,0.994164655208588,0.625279607176781,2.43813702844531
3.3664330416359,1.57338311344385,1.02813463926315,0.634947393536568,1.98387334542352
3.37640704168007,0.746056696996093,1.16101276114583,0.368667531609535,1.42844915049128
3.38638104160782,0.152709830850363,1.42164845198393,0.188254616260529,1.4421665694399
3.39635504165199,-0.0369165422022343,1.75678454071283,0.123572716712952,1.76151212595644
3.40632904169615,0.0537170545756817,1.89327711895108,0.196223201751709,1.90417628280621
3.41630404163152,0.0521842069923878,1.65583236247301,0.443310163021088,1.71494253685369
3.42627804167569,0.0427565219253302,1.38608875617385,0.836226682662964,1.61936568598826
3.43625204160344,0.0413933897763491,1.31313304647803,1.54144825279713,2.02536281355247
3.44622604164761,0.367464540079236,1.90012523174286,2.44675394117832,3.11963314080248
3.45620004169177,1.47574045926332,2.86141713291407,3.36077490448952,4.65406552062682
3.46617404161952,3.02417876601219,3.66881177991629,3.88622265994549,6.14072989537281
3.47614804166369,3.90479458630085,4.05596323728561,4.28467532336712,7.0750760540144
3.48612204159144,3.99670375317335,4.14572121351957,4.97812995672226,7.61199206100951
3.49609704164322,3.22029847204685,3.61941333264113,5.6360639244318,7.43207182970195
3.50607104168739,1.25780815377831,2.3258054548502,6.22354128241539,6.76194635141767
3.51604504161514,-1.25074325546622,0.925380349159241,6.99467149794102,7.16562047877312
3.52601904165931,-3.21676032185555,-0.905769518762827,7.69964105308056,8.393595042392
3.53599304170348,-4.55243189960718,-2.74519992113113,8.22143605291844,9.79044276729947
3.54596704163123,-4.9637306034565,-3.83000138908625,8.44314434409142,10.5163785857707
3.5559410416754,-4.24668537855148,-4.02556356310844,7.65921164989472,9.63862136422591
3.56591504160315,-2.60121779054403,-3.38181786417961,5.71264081478119,7.1300274290518
3.57589004165493,-0.813754224926233,-2.37112546920776,3.27298422396183,4.1227245432619
3.5858640416991,0.0929667820036411,-1.64358113005757,0.987421646118164,1.91963623138868
3.59583804162685,0.0590903533995152,-1.18861556589603,-0.904382413029671,1.4947261228575
3.60581204167102,-0.825587673783302,-1.17007024437189,-2.33252624452114,2.73703088496409
3.61578604159877,-2.05472868338227,-1.10889141172171,-3.23844530582428,3.99237750270679
3.62576004164293,-2.89519737482071,-1.19082128182054,-3.55476505458355,4.73672648119921
3.6357340416871,-2.96902402728796,-1.17855280011892,-3.14503428161144,4.48278161522425
3.64570804161485,-2.33044916734099,-1.07910788789392,-2.23376150965691,3.40369764187419
3.65568204165902,-1.36062705561519,-1.01190218389034,-1.05674681961536,1.99799045418172
3.66565704159439,-0.622992176413536,-0.927122088521719,0.147905904650688,1.1267434382005
3.67563104163855,-0.213751984834671,-1.0076462879777,1.2085721129179,1.58798221174509
3.68560504168272,0.135702180862427,-1.06645962953568,2.44635282218456,2.67215144666813
3.69557904161047,0.444968433380127,-0.919377305209637,3.44011168062687,3.58854008076052
3.70555304165464,0.742123640477657,-0.654931276291609,3.8559124481678,3.9809224160182
3.71552704169881,0.956201169043779,-0.350584505572915,3.77103660464287,3.90614224584627
3.72550104162656,1.0658771006763,0.0300321035832167,3.21145748198032,3.3838521066322
3.73547504167072,1.19786907702684,0.279897807911038,2.28028897404671,2.59093630059281
3.74545004160609,1.31751582697034,0.351562379300594,1.14466087639332,1.78036304803328
3.75542404165026,1.03162995859981,0.259215255975723,-0.134757855534554,1.07219988809898
3.76539804169443,0.598510615378618,-0.00874663062393665,-1.23253926515579,1.37019870837005
3.77537204162218,0.191355979442596,-0.213935587406158,-2.23160213291645,2.24998525018821
3.78534604166634,-0.0524656042456627,-0.439523652344942,-3.16341149568558,3.19423010624394
3.7953200415941,-0.321064764261246,-0.698358400762081,-4.01661381483078,4.08949551610643
3.80529404163826,-0.627017107307911,-0.832074867188931,-4.83356924414635,4.94458195153258
3.81526804168243,-0.754392706900835,-0.880813602358103,-5.38845831513405,5.51184397205341
3.8252430416178,-0.772195285856724,-0.913749067783356,-5.59265185654163,5.71917631367078
3.83521704166196,-0.815894598215818,-0.876367525756359,-5.77879738211632,5.90154244406939
3.84519104158971,-0.779181392937899,-0.820946446359158,-5.97825058579445,6.08445205235788
3.85516504163388,-0.739344312697649,-0.664278050512075,-6.1802911823988,6.25970402178464
3.86513904167805,-0.701614422798157,-0.418803458958864,-6.30779147386551,6.3604946673419
3.8751130416058,-0.506840453445911,-0.0912864384055138,-6.33208139240742,6.35298947104104
3.88508704164997,-0.150703943520784,0.186753051280975,-6.1834054094553,6.18806034541007
3.89506104169413,0.0869003688544035,0.474256113320589,-5.70995577335358,5.73027621225913
3.90503495826852,0.178878971412778,0.739195647239685,-4.96064502775669,5.0186060796519
3.9150099583203,0.22198844589293,0.884483461081982,-4.05841906785965,4.15960998092421
3.92498395836446,0.164841926246882,0.959858310073614,-3.07768254339695,3.22810016480228
3.93495795829222,-0.0126280123740435,1.02875663682818,-2.08873945176601,2.32837543834287
3.94493195833638,-0.141764135509729,1.08103476472199,-1.25270397305489,1.66072287777397
3.95490595826414,-0.238765057772398,1.1447689037025,-0.559555733799934,1.29638235676272
3.9648799583083,-0.494822086393833,1.27355426698923,-0.00813172280788422,1.36632920376659
3.97485395835247,-0.829977617114782,1.3746285058558,0.463256185054779,1.67124883455887
3.98482795828022,-1.23422560214996,1.5008519116044,0.827638877034187,2.11207372228041
3.994802958332,-1.73236978411675,1.54361479237676,1.10397068738937,2.56955306907252
4.00477695825975,-2.35023643746972,1.48461945623159,1.58029481470585,3.19766132403323
4.01475095830392,-2.92892820775509,1.26524844333529,2.38648844361305,3.98431941001779
4.02472495834809,-3.16243033289909,0.860853035375476,3.66874482929707,4.91952458896684
4.03469895827584,-2.86698251277208,0.525326864272356,5.16131328284741,5.92745407798021
4.04467295832001,-2.08838511049748,0.660850558876991,6.60120475530624,6.95514054871599
4.05464695836417,-0.761597499847412,0.88407649487257,7.41821339428425,7.50942820484344
4.06462095829193,0.685704514458776,1.29530152380466,7.68369511127472,7.82222265610912
4.07459595834371,1.89714432120323,1.8735395501554,7.52120332717896,7.97983749898693
4.08456995827146,2.53815820097923,2.34691945821047,6.94960174441338,7.7619097136258
4.09454395831563,2.41910655140877,2.70914277344942,6.08560663461685,7.0870402274359
4.10451795835979,1.57589478492737,2.77820833057165,5.0441719186306,5.97038995760918
4.11449195828754,0.518553522750735,2.51737368822098,4.08022450447083,4.82227125419015
4.12446595833171,-0.824841569066048,1.91059657171369,3.38782763242722,3.97594252233868
4.13443995825946,-1.98762676745653,1.11287921279669,3.06218040525913,3.81655723700532
4.14441395830363,-2.48580807924271,-0.0356197759509087,2.98428613722324,3.88413108997237
4.1543879583478,-2.71511190354824,-1.58254555419087,3.34661821067333,4.59087535529871
4.16436295828316,-2.92542981863022,-3.11745998203754,4.00679341614246,5.85927383239416
4.17433695832733,-2.75688675105572,-4.32358912825584,4.25816989481449,6.66527256466104
4.18431095825508,-1.97120778590441,-4.89482409060001,3.94200743615627,6.58668244565045
4.19428495829925,-1.01866156518459,-4.7254147580266,3.21843028664589,5.80736683271855
4.20425895834342,-0.190615721940994,-3.90286675930023,1.96227353274822,4.37255311135565
4.21423295827117,0.294765157699585,-2.93335747361183,0.282149205207825,2.96160104338641
4.22420695831534,0.703681559711695,-1.99630593582988,-1.34355040848255,2.50709649336469
4.2341809583595,1.07919844664633,-1.49922784745693,-2.56111904740334,3.15779736538087
4.24415495828725,1.32205385103822,-1.33940999507904,-3.11440656602383,3.63886984906783
4.25412995833904,1.51205517679453,-1.34919998824596,-3.17955273449421,3.77043857626452
4.26410395826679,1.82828049302101,-1.46858609855175,-3.03081652522087,3.8321278031366
4.27407795831095,2.10502570152283,-1.68927551239729,-2.21645316660404,3.49248473162101
4.28405195835512,2.16895491823554,-1.90927232354879,-0.90803341448307,3.02889599105439
4.29402595828287,1.93691269665957,-1.96911009728909,0.413031526207924,2.79278005066072
4.30399995832704,1.65196939945221,-1.84745526731014,1.36303099215031,2.82841781690767
4.31397395825479,1.22662422180176,-1.61734335780144,1.99016182780266,2.84273646674784
4.32394795829896,0.686111042127013,-1.43190797656775,2.10744118630886,2.63863926470404
4.33392295835074,0.230056287869811,-1.33715764760971,1.89541939258575,2.33099359585987
4.34389695827849,-0.17227585695684,-1.14366041779518,1.35614706516266,1.78235041012449
4.35387095832266,-0.487495525181294,-0.934358602613211,0.586250027418137,1.20597138440216
4.36384495836683,-0.543511778041721,-0.689575590491295,-0.160284460186958,0.892530479058791
4.37381895829458,-0.509591458775103,-0.497660763412714,-0.914848344326019,1.15943830513448
4.38379295833875,-0.445887469500303,-0.304368332326412,-1.6072995954752,1.69554348419475
4.3937669582665,-0.296266941949725,-0.119658298194408,-2.30216340780258,2.32423074703099
4.40374095831066,-0.204805671796203,-0.0105919387936592,-2.94184061408043,2.9489801204858
4.41371495835483,-0.709707334712148,-0.786831451356411,-3.48019843697548,3.63793477051396
4.4236899582902,-0.811749360859394,-0.995800706148148,-4.6101038646698,4.78577200817843
4.43366395833436,-0.644944889768958,-0.609914878606796,-4.84640212833881,4.92702381357671
4.44363795826212,-0.640814051181078,-0.945257666409016,-5.37111956655979,5.49118203143709
4.45361195830628,-0.556515108570457,-1.01481205075979,-5.86197694838047,5.97514236715566
4.46358595835045,-0.500358449444175,-0.870380854010582,-6.20349644243717,6.28420953822269
4.4735599582782,-0.453497803397477,-0.784717098176479,-6.36544092714787,6.42964068816182
4.48353395832237,-0.345739429593086,-0.555322057306767,-6.37721254169941,6.41067532655609
4.49350795836654,-0.365449151024222,-0.561236515939236,-6.17956905126572,6.21575523715091
4.50348195829429,-0.285755512006581,-0.366335223466158,-5.7975002861023,5.81608693847937
4.51345695834607,-0.176362329795957,-0.130869749486446,-5.34313362300396,5.34764504020014
4.52343095827382,0.032651948556304,0.135950395166874,-5.06952778458595,5.07145547337049
4.53340495831799,0.527513942196965,0.469257328659296,-4.65223188400269,4.70550049434105
4.54337895836216,1.27069644033909,0.79012241050601,-3.89864740848541,4.175932767989
4.55335295828991,1.93924763604999,0.999291201531887,-2.89201824367046,3.62257281791647
4.56332695833407,2.56416369259357,1.04451356738806,-1.56830802261829,3.18206443817245
4.57330095826183,3.0890401750803,1.06786997795105,-0.262984955906868,3.27897492825161
4.58327495830599,3.28739059388638,1.10113171800971,0.839057319760323,3.56699385519838
4.59324895835016,3.1619827285409,1.03565942108631,1.56506340265274,3.67697547807961
4.60322395828553,2.68081447541714,1.13438834175468,1.84665419876575,3.4472793462866
4.61319795832969,2.0002476900816,1.37174363583326,1.71930067241192,2.97298944267919
4.62317195825744,1.3296236564219,1.63551226481795,1.38251216053963,2.52074181742729
4.63314595830161,1.00368158340454,1.90790407508612,1.19293548882008,2.4638526256824
4.64311995834578,0.910582581236959,2.04486603856087,1.1863649725914,2.53339685029874
4.65309395827353,0.826057936102152,1.99544171735644,1.28004146039486,2.51051100405746
4.6630679583177,0.681612048223615,1.78659949332476,1.55146336376667,2.46243198950592
4.67304195836186,0.529673026576638,1.71608309581876,2.02423881590366,2.70611113789674
4.68301595828962,0.71325381718576,2.1190631121397,2.67289091348648,3.48475326477498
4.6929909583414,1.57780945569277,2.97348896116018,3.139630869627,4.60308606025672
4.70296495826915,2.90505636513233,3.83146348536015,3.416642126441,5.8985513767717
4.71293895831332,4.06583918452263,4.51661127179861,3.75026378631592,7.14109964374469
4.72291295835748,4.6066396817565,4.54730301439762,4.1190213650465,7.67238104293529
4.73288695828524,4.15151200354099,4.14340133070946,4.56787936627865,7.43426851867378
4.7428609583294,3.13494608044624,3.69221964597702,5.06434130430222,7.00770473749468
4.75283495825715,1.91605904057622,2.80679098248482,5.41677521109581,6.39459236807742
4.76280895830132,0.60151549950242,1.86305183798075,5.66705182850361,5.99568673915601
4.77278295834549,-0.54390902325511,0.920624954849482,5.67416204273701,5.77403690846425
4.78275795828085,-1.51126185581088,-0.15279534637928,5.43589151322842,5.64412751081094
4.79273195832502,-2.42500346839428,-1.34629187554121,4.97275811970234,5.69398515566542
4.80270595836919,-3.16758143752813,-2.42449549153447,4.40079342484474,5.93959033267451
4.81267995829694,-3.92896375983954,-3.20757522314787,3.62400251984596,6.23367382064015
4.82265395834111,-4.38578830003738,-3.67299867868424,2.53991879761219,6.25917293297003
4.83262795826886,-4.43916197687388,-3.84550440430641,1.35225691258907,6.02682851407834
4.84260195831303,-4.18133192628622,-3.65858119904995,0.29398338496685,5.56373788908669
4.85257595835719,-3.87090704798698,-3.35478530913591,-0.680497788190842,5.16735745660024
4.86254995828494,-3.42931070387363,-2.74828198850155,-1.43312565922737,4.62245334721295
4.87252395832911,-3.24879049211741,-2.31649171739817,-1.91835217237473,4.42728456231374
4.88249895826448,-3.05731055170298,-1.99979219198227,-2.3151266849041,4.32505817161141
4.89247295830865,-2.4726074051857,-1.47018151134253,-2.87934732735157,4.07011819091279
4.90244708326645,-2.20239032059908,-1.04518307358027,-2.79276409685612,3.7070826915859
4.91242108331062,-2.09701326191425,-1.00524337470531,-2.39346592605114,3.3371631668531
4.92239508335479,-1.77265066802502,-1.18851645559073,-1.7148053330183,2.73777630317152
4.93236908328254,-1.33899031117558,-1.23101840436459,-0.534684602022171,1.89583464177286
4.94234308332671,-0.967084883898497,-1.10374235361815,0.313800768256187,1.50065694880398
4.95231708325446,-0.53519155561924,-0.989129617810249,0.8774419516325,1.42643323731615
4.96229108329862,-0.066105988919735,-0.769963111281395,1.36352683603764,1.56729659831826
4.97226608335041,0.300548346340656,-0.624336597472429,1.93259014248848,2.05305386053927
4.98224008327816,0.692955719679594,-0.634497011750937,2.67989236950874,2.83982344512977
4.99221408332232,1.0845374661684,-0.58101121455431,3.17451535820961,3.40460618963039
5.00218808336649,1.40878750115633,-0.480095289051533,3.06838137745857,3.41029881205714
5.01216208329424,1.64602175787091,-0.445967283993959,2.35450125038624,2.90722386201128
5.02213608333841,1.66935054033995,-0.385725321471691,1.38771793663502,2.20483022516843
5.03211008326616,1.59377557039261,-0.490687958747149,0.360611822605133,1.70614657290701
5.04208408331033,1.3850985302031,-0.731674958467484,-0.716582125425339,1.72259575225829
5.0520580833545,0.935475566983223,-0.877644265294075,-1.86210020363331,2.26114819531966
5.06203308328986,0.627186676561833,-0.910569059550762,-2.90035520374775,3.1039586735932
5.07200708333403,0.573553821891546,-0.892409654259682,-3.87166016936302,4.01436314309685
5.08198108326178,0.596433684378863,-0.781962474882603,-4.7798263156414,4.8799526698201
5.09195508330595,0.710191703438759,-0.707154074907303,-5.58481658756733,5.67402991339123
5.10192908335011,0.694071514606476,-0.80084591165185,-6.18207049012184,6.27224720386824
5.11190308327787,0.366335369646549,-0.818789262324572,-6.57444029510021,6.63535098189911
5.12187708332203,-0.0492224460840225,-0.797929466664791,-6.8398612010479,6.88642254966763
5.1318510833662,-0.439754763543606,-0.761672051846981,-6.92750277757645,6.98310985879167
5.14182508329395,-0.738416944295168,-0.625070569217205,-6.879374345541,6.94706874776775
5.15179908333812,-0.762285717129707,-0.411381734311581,-6.64989861309528,6.7060767972274
5.16177308326587,-0.570431701093912,-0.121608344614506,-6.32507350444794,6.3519080402476
5.17174808331765,-0.34479583516717,0.144292763918638,-5.75609381318092,5.76821641027862
5.18172208336182,-0.276890657991171,0.327739653289318,-4.90959591150284,4.92830739007485
5.19169608328957,-0.222062778621912,0.405258530080319,-3.77754923343658,3.80570946932231
5.20167008333374,-0.156472952663898,0.40258503690362,-2.59571936130524,2.63140979315441
5.21164408326149,-0.0140707397460938,0.444355498999357,-1.57056153953075,1.6322724480494
5.22161808330566,0.163109396249056,0.444276123046875,-0.789530818462372,0.920513368700399
5.23159208334982,0.137170124351978,0.502058161944151,-0.0624178576469421,0.524188925810829
5.24156608327758,-0.239996189028025,0.622778168320656,0.405620765089989,0.781011538171488
5.25154008332174,-0.723906786292791,0.781497182697058,0.428655286431313,1.14827010602458
5.26151508325711,-1.18158311963081,1.00942574188113,0.543830232024193,1.64645993520409
5.27148908330128,-1.53188761666417,1.16957944370806,0.861125881075859,2.110955596002
5.28146308334544,-1.94409833997488,1.2154736546427,1.35218382239342,2.66182186672325
5.2914370832732,-2.41395632386208,1.25290760233998,2.10714590191841,3.44049799382104
5.30141108331736,-2.76324589043856,1.23813724324107,2.89729067802429,4.19080003783199
5.31138508336153,-2.6026804715395,1.46096322968602,3.84464720249176,4.86720364347491
5.32135908328928,-1.75804607748985,1.72818580895662,4.84852700650692,5.43926156143308
5.33133308333345,-0.560293652415276,2.07598433554173,5.57034472882748,5.97096142478977
5.3413070832612,0.452309758812189,2.82910980463028,5.84495044112206,6.50936955962287
5.35128108330537,0.866543911099434,3.00310832440853,5.98278393208981,6.75005640984335
5.36125608335715,1.20806187026203,3.33846806913614,5.93519695222378,6.9160209219398
5.3712300832849,1.3343346118927,3.95597526490688,5.55729725182056,6.95080872259785
5.38120408332907,0.250020509362221,3.70366060048342,5.5167672765255,6.64938593270217
5.39117808325682,-0.734137732610107,3.06433042645454,5.44068213701248,6.28729681889949
5.40115208330099,-1.28692451030016,2.18305620968342,5.41838261067867,5.98170370593142
5.41112608334515,-1.78581991329789,1.08960941411555,5.51911376416683,5.90228923214343
5.4211000832729,-2.3204450199008,-0.148388738483191,5.59913407981396,6.06273756250633
5.43107408331707,-2.87991187602282,-1.41898986920714,5.48718328893185,6.35740553283355
5.44104808336124,-2.97319104552269,-2.42500873088837,5.27785823106766,6.52505324463408
5.45102208328899,-2.31394379317761,-2.91745480120182,4.87541074991226,6.13477859220696
5.46099608333316,-1.22060772925615,-2.97407543689013,4.19785528063774,5.28743764882492
5.47097108326852,-0.13344288982451,-2.94140792012215,3.36837394595146,4.47388316758123
5.48094508331269,0.430858955830336,-3.01291059672833,2.38217261373997,3.86497297084336
5.49091908335686,0.680048137307167,-2.88183005511761,1.31022654175758,3.23791654098127
5.50089308328461,0.868948359265924,-2.79373648881912,0.0629218876361847,2.92643024587535
5.51086708332878,1.05736560121179,-2.54591628670692,-0.973267875909805,2.92351878937412
5.52084108325653,1.35127838104963,-2.24058506414294,-1.7237123966217,3.13326652537251
5.5308150833007,1.58791461378336,-2.19539164200425,-2.12522081494331,3.44351285676665
5.54078908334486,1.70728318244219,-2.27434615641832,-2.00806132435799,3.48134695005354
5.55076308327261,1.72197738155723,-2.30110769301653,-1.413581340909,3.20289165049657
5.56073708331678,1.609399330616,-2.3204466278851,-0.720586883425713,2.9144269101859
5.57071208336856,1.44699043080211,-2.20614657193422,-0.266136605143547,2.65173390374814
5.58068608329631,1.24102971464396,-1.98775642946363,-0.0632867538928986,2.34421321315309
5.59066008334048,0.863909740447998,-1.62336408957839,-0.02772047996521,1.83913551213148
5.60063408326823,0.563892321288586,-1.23515750214458,-0.048203861117363,1.35864352106757
5.6106080833124,0.354197792485356,-0.87295172855258,-0.164485684633255,0.956324389019598
5.62058208335657,0.222763128876686,-0.527154850065708,-0.375181329846382,0.684307443916863
5.63055608328432,0.25346525028348,-0.207768017426133,-0.550810053348541,0.640939854460835
5.64053008332849,0.430753194317222,-0.0258365801721811,-0.645783453583717,0.776693061776656
5.65050408325624,0.679206722974777,0.118866512104869,-0.815401824116707,1.06786289148325
5.6604780833004,0.672151545658708,0.0674524565041065,-1.00139941513538,1.2079479801934
5.67045208334457,0.603258481398225,-0.0757426388561726,-1.21799723982811,1.36131371070326
5.68042708327994,0.537959627509117,-0.0773758392781019,-1.52660334169865,1.62046454580753
5.6904010833241,0.591886450946331,-0.1286277808249,-2.06856889665127,2.15542384625549
5.70037508336827,0.494090526625514,-0.3695329195261,-2.75648680150509,2.82469458773622
5.71034908329602,0.280963755324483,-0.440103257596493,-3.43843060612679,3.47784941340227
5.72032308334019,0.112486907467246,-0.55357490926981,-4.17692809581757,4.21495276392925
5.73029708326794,-0.0455300755798817,-0.631778933554888,-4.85997702419758,4.90108093020248
5.74027108331211,-0.118146427497268,-0.508583069890738,-5.46525096774101,5.49013510377513
5.75024508335628,-0.122075244784355,-0.346625428944826,-5.99717919230461,6.00842823190822
5.76021908328403,-0.0332715341448784,-0.201933446377516,-6.41510542273521,6.41836908385277
5.7701930833282,0.14180820889771,0.00320310473442078,-6.42854407846928,6.43010877021634
5.78016708325595,0.408439707756043,0.185298264026642,-6.09184210538864,6.10833026927237
5.79014208330773,0.725538159459829,0.392991364002228,-5.53848675906658,5.59961457721588
5.8001160833519,1.0600170211494,0.527495596557856,-4.82028670907021,4.96357246820808
5.81009008327965,1.28609742164612,0.677393209040165,-4.03329241275787,4.28723172040289
5.82006408332381,1.40811010122299,0.849729365408421,-3.27652705192566,3.66612105277557
5.83003808336798,1.6543334287405,0.856807273775339,-2.57040384113789,3.17457299559784
5.84001208329573,1.80284013479948,0.8426010248065,-1.80230833053589,2.68486952326698
5.8499860833399,1.91910251632333,0.707124838829041,-1.00703496158123,2.2797147671791
5.85996008326765,1.8793794567883,0.665995889380574,-0.374565618038178,2.02877230597375
5.86993408331182,1.61729906514287,0.680530898049474,-0.20471569776535,1.7665466555468
5.87990808335599,1.19616344422102,0.739249003082514,-0.194293620586395,1.41952318926101
5.88988208328374,0.718472895696759,0.866801480948925,-0.166121735572815,1.13804417324455
5.89985708333552,0.393450078070164,0.972130007743836,-0.147628161907196,1.05907213638994
5.90983091667295,0.330171802639961,1.0456082392484,-0.0761190533638001,1.09913789832198
5.9198049166007,0.35026020437479,0.952464871332049,0.181397586464882,1.03091058112017
5.92977891664486,0.392119397968054,0.798310266584158,0.709533306956291,1.13775850586881
5.93975291668903,0.304967964291573,0.674671841785312,1.24006404697895,1.44428058006467
5.94972691661678,0.386536184102297,0.939181751534343,1.87715736865997,2.13428966420913
5.95970091666095,0.990853523164988,1.51073341369629,2.60822304725647,3.17284314391158
5.9696749165887,2.01922745972872,2.40412598490715,3.26638797998428,4.53060610969593
5.97964891663287,3.20407888054848,3.24380486369133,3.81197880864143,5.94302733495444
5.98962291667704,4.09288781940937,3.74699811637402,4.39814054310322,7.08063315129857
5.99959691660479,4.42653462231159,3.88346043527126,5.18696677207947,7.84729877151985
6.00957191665657,3.89376702994108,3.7305890750885,5.87713293135166,7.97617753208917
6.01954591670074,2.47176189780235,3.00314194589853,6.25937068104744,7.36940905021556
6.02951991662849,0.361463615745306,2.08195638924837,6.39437587380409,6.7344815069705
6.03949391667265,-1.58585975602269,1.01160353735089,6.12768027484417,6.4098953527548
6.04946791660041,-2.80851064860821,-0.137631542757154,5.7030823713541,6.35860228661593
6.05944191664457,-3.63872522413731,-1.18201683685184,5.26492360532284,6.50821831450513
6.06941591668874,-4.24798258334398,-2.01362407296896,4.83312134742737,6.74233638248583
6.07938991661649,-4.30771276831627,-2.52220641195774,4.43825887441635,6.67952515641428
6.08936391666066,-3.6896223127842,-2.73903695583344,3.72414602816105,5.91480345366471
6.09933791658841,-2.73937843322754,-2.63053017497063,2.80671847701073,4.72245188552055
6.10931191663258,-1.87344424054027,-2.21318851992488,1.89342081427574,3.46309675392897
6.11928691668436,-1.35869966715574,-1.91136811181903,0.90709493637085,2.51440133391577
6.12926091661211,-1.43943772852421,-1.86154764175415,-0.0882397466897965,2.35480930219737
6.13923491665628,-2.04203408583999,-1.87805330827832,-1.04365665793419,2.96415361547236
6.14920891670045,-2.70302717059851,-1.85392067983747,-1.77595726847649,3.72792194011318
6.1591829166282,-3.30651098906994,-1.79680069193244,-2.22617650151253,4.37234141659314
6.16915691667236,-3.65054420113564,-1.70868753746152,-2.43773636519909,4.71048242235712
6.17913091660012,-3.49908991366625,-1.62214786872268,-2.35816336154938,4.52061150417466
6.18910491664428,-3.00073757082224,-1.41513538464904,-2.08171285271645,3.91670301746185
6.19907891668845,-2.31847231552005,-1.19418328464031,-1.65943570911884,3.09113481877546
6.2090529166162,-1.69272858560085,-1.07659826293588,-0.993753595948219,2.23873627158869
6.21902691666037,-1.28297018453479,-0.910430041998625,-0.393510596752167,1.62164914378391
6.22900191659574,-0.925036240518093,-0.744012583494186,0.243734167814255,1.21187999209066
6.2389759166399,-0.452667754590511,-0.524650341421366,0.921919382214546,1.15330023155396
6.24894991668407,0.0317508195340633,-0.318509531021118,1.36553535461426,1.40254883715109
6.25892391661182,0.407186503261328,-0.201577570214868,1.55075994372368,1.61594887552477
6.26889791665599,0.736750780194998,-0.138856461346149,1.47128575801849,1.65129180059842
6.27887191670015,1.09093461245298,-0.078889756500721,1.15893334507942,1.59357724025717
6.28884591662791,1.28625134959817,-0.174130301401019,0.609721920490265,1.43405882603729
6.29881991667207,1.18663043618202,-0.298654871731997,-0.275178154706955,1.25419677136832
6.30879391659983,0.981472688913345,-0.387881920784712,-1.34007540822029,1.70573829272582
6.31876791664399,0.867142958343029,-0.450237505584955,-2.47798333525658,2.66365390609377
6.32874191668816,0.640595950037241,-0.546279192119837,-3.57148165941238,3.66936852475549
6.33871591661591,0.356297893077135,-0.601955063939095,-4.55456116318703,4.60796326773822
6.34869091666769,0.126926679611206,-0.691750608533621,-5.43924723029137,5.48452730129371
6.35866491659544,-0.0642768336832523,-0.704132233858109,-6.19111496329308,6.23135925804457
6.36863891663961,-0.142742813229561,-0.578117719888687,-6.49893402993679,6.52615806843877
6.37861291668378,-0.145212969481945,-0.452353905290365,-6.50030286312103,6.51764130452395
6.38858691661153,-0.177275591790676,-0.406176542937756,-6.42753894209862,6.4427993040038
6.3985609166557,-0.230603221803904,-0.262363689243794,-6.2878103685379,6.29750520301752
6.40853491669986,-0.20307511523366,-0.0415128922462463,-5.97070299983025,5.97429971919988
6.41850891662762,-0.0675799258053303,0.135069804489613,-5.32334372162819,5.3254858254487
6.42848291667178,0.118887635171413,0.275339391678572,-4.48522429525852,4.49524004133082
6.43845691659953,0.21696824580431,0.388720119148493,-3.70275749802589,3.72942242711994
6.4484309166437,0.21925289914012,0.458417979553342,-3.0360889595747,3.07832016661856
6.45840491668787,0.140018303096294,0.469492898359895,-2.33607491970062,2.38689646555242
6.46837991662324,0.105947600752115,0.391291212961078,-1.61360874116421,1.66375084583216
6.4783539166674,0.100602807104588,0.379761526957154,-1.07511701703072,1.14464681996814
6.48832791659515,-0.0500986513495445,0.467858382314444,-0.72194519162178,0.861746018543016
6.49830191663932,-0.509677230119705,0.527273402363062,-0.541101336479187,0.911360947200162
6.50827591668349,-1.16875184342265,0.663136308565736,-0.515872355103493,1.43939394260295
6.51824991661124,-1.700815577209,0.78542541526258,-0.532031720280647,1.94749183875105
6.52822391665541,-2.01268150180578,0.880536809787154,-0.32118112385273,2.22022278508726
6.53819791669957,-2.15409875124693,0.926605194658041,0.225307837128639,2.3557381514851
6.54817191662733,-2.20656347841024,0.853141069561243,1.04016177713871,2.58431975410288
6.55814591667149,-2.18401661485434,0.775850965082646,2.02968140423298,3.08082454818002
6.56811991659924,-1.98051743030548,0.905593005940318,3.0352528077364,3.73568033844219
6.57809391664341,-1.34448537826538,1.3077850368619,3.91667262017727,4.3426106259548
6.58806891669519,-0.676462478488684,1.74207382321358,4.62169655442238,4.98522835299334
6.59804291662294,-0.385579433441162,2.12870736345649,5.26354249298573,5.69077728559053
6.60801691666711,-0.544254155158997,2.27902612164617,5.71763901472092,6.17912360705078
6.61799091659486,-1.32236857742071,2.17272008657455,5.86563672065735,6.39336103844278
6.62796491663903,-2.07845887720585,1.85864596098661,5.77616905868053,6.4139445824692
6.6379389166832,-2.23325674876571,1.15946178719401,5.91286175787449,6.42601910280426
6.64791291661095,-2.07646278396249,0.463553662151098,6.25626639425755,6.60813505361318
6.65788691665512,-1.61373884171248,-0.203766511939466,6.57533024132252,6.77352505148464
6.66786091669928,-0.976516662016511,-0.778580152988434,6.8495658248663,6.96249408150554
6.67783491662703,-0.435052432715893,-1.0022386367619,7.00239976286888,7.08712602845868
6.6878089166712,0.182389566600323,-0.988075437918305,6.70613011658192,6.78098371665565
6.69778291659895,0.385134314149618,-1.0937760668993,5.84823599159718,5.96209180890984
6.70775791665074,0.387688743397594,-1.50565627634525,4.67240068495274,4.92428995338433
6.7177319166949,0.38343043550849,-2.48341861456633,3.32449702441692,4.16733336552354
6.72770591662265,-0.240703629031777,-3.41024176418781,1.90386744976044,3.9131059778004
6.73767991666682,-1.03342161856592,-3.78926676124334,0.623141280412674,3.97678361052464
6.74765391659457,-1.22904613852501,-3.41253562688828,-0.689862104058266,3.69213536290595
6.75762791663874,-0.419797668345273,-2.49572758823633,-2.11249668896198,3.29659347477171
6.76760191668291,0.778947577401996,-1.58701428875327,-3.37457608759403,3.80961119433584
6.77757591661066,1.71351646050811,-1.00216868944466,-4.19226826608181,4.63849048261738
6.78754991665483,2.084139739573,-0.867826936393976,-4.27573726952076,4.83515162570598
6.79752391669899,2.12622595131397,-1.12935849376023,-3.50213660538197,4.24985272759253
6.80749791662674,2.08555564284325,-1.50707817301154,-1.9539792573452,3.23092276247799
6.81747191667091,1.95289269849658,-1.66959904700518,-0.375661970973015,2.59662719427283
6.82744691660628,1.85191698521376,-1.64815394505858,0.761068326830864,2.59330540909483
6.83742091665044,1.92250311076641,-1.46039619594812,1.57125326514244,2.88055759936632
6.84739491669461,1.9501718428731,-1.15380650639534,2.04568523347378,3.05274757315241
6.85736891662236,1.86896717369556,-0.905592055767775,2.07901260852814,2.93860999355822
6.86734291666653,1.76719857797027,-0.597754387669265,1.88459619641304,2.65179259096417
6.87731691659428,1.74298920482397,-0.274598914906383,1.42127627670765,2.26571008448403
6.88729091663845,1.69202341139317,-0.0205343250185251,0.646134871244431,1.81131310243276
6.89726491668262,1.5801761162281,0.0953835824131966,-0.436761281490326,1.64219822284059
6.90723904164042,1.52206327110529,0.190241061598063,-1.48585175693035,2.13556168403975
6.91721304168459,1.38314906850457,0.207405270785093,-2.44039743304253,2.81276695146524
6.92718704161234,1.15997202984989,0.070082241743803,-3.25917134642601,3.4601509354371
6.93716104165651,0.911858078241348,-0.0494582350552082,-3.8748118185997,3.98096695558111
6.94713504170068,0.831901716515422,0.00180642418563366,-4.49116798996925,4.56756539561659
6.95710904162843,0.786775244995952,-0.0139198815822601,-5.06294381976128,5.12373000569903
6.96708404168021,0.665152063071728,-0.0571671310812235,-5.42897250294685,5.46986634074706
6.97705804160796,0.579098151773214,0.00571243733167648,-5.59474399030209,5.62463755439839
6.98703204165213,0.477602474838495,0.0474275701493025,-5.5728730648756,5.59350227456807
6.9970060416963,0.475356120765209,0.186417421102524,-5.42469117164612,5.44866857169481
7.00698004162405,0.636009247899056,0.335776870474219,-5.30395727813244,5.35249630344689
7.01695404166821,0.87977287106216,0.445204660892487,-4.95653852820396,5.0536602256491
7.02692804159597,1.13955289497972,0.550722710564733,-4.47053550481796,4.64624192269692
7.03690204164013,1.36011732459068,0.645208745375276,-3.97025825858116,4.24607631839
7.0468760416843,1.54179470032454,0.624662287384272,-3.42724254369736,3.80963585196251
7.05685004161205,1.5833426758647,0.537584236264229,-2.87757445156574,3.3281234298923
7.06682404165622,1.5794593937695,0.440774664133787,-2.26450324594975,2.7958807614106
7.07679804170039,1.67471375271678,0.438069961443543,-1.67592134892941,2.40941565788372
7.08677204162814,1.81883577793837,0.625482505559921,-1.16201073467731,2.24714505525912
7.09674704167992,1.96861834645271,0.959015653207898,-0.8774419516325,2.35904082109077
7.10672104160767,2.00037092015147,1.36259888291359,-0.772879702448845,2.54076810597945
7.11669504165184,1.92902027115226,1.69999345868826,-0.780200416445732,2.68697034890996
7.12666904169601,1.70512088209391,1.82824497118592,-0.732649104595184,2.60512794458995
7.13664304162376,1.33993682920933,1.6655102352798,-0.427163661718369,2.17986785011981
7.14661704166792,0.839663091301918,1.33246277198195,0.164033110141754,1.58347655708422
7.15659104159568,0.468640739768744,1.02511491782963,0.845884528756142,1.4092570289755
7.16656504163984,0.409260949194431,0.963021434471011,1.5224097186327,1.84733217347975
7.17653904168401,0.674794998764992,1.25898388266563,2.28699748456478,2.69643212441473
7.18651304161176,1.39365549176931,1.7978007119894,3.10158069849014,3.84631848122526
7.19648704165593,2.3432897990942,2.47348156392574,3.87776875555515,5.16199657605265
7.2064610417001,3.29593366831541,3.2684184256196,4.48429341852665,6.45403944939185
7.21643504162785,4.00362159401178,3.81491908103228,4.79283169269562,7.31804817539275
7.22641004167963,4.06526528030634,3.79304026186466,5.06927109181881,7.52403120871653
7.23638404160738,3.08504945039749,3.319909299016,5.39473880946636,7.04574585742726
7.24635804165155,1.2984084418416,2.35085361108184,5.71422774910927,6.31385587032777
7.25633204169571,-0.650710609853268,1.22632016658783,5.99484498381615,6.1534910277615
7.26630604162347,-2.19264578953385,-0.0291671907529235,6.12739960849285,6.50796221912323
7.27628004166763,-3.32759867995977,-1.25436253577471,6.11519120693207,7.07403009912769
7.28625404159538,-4.25439844071865,-2.28522577822208,6.09029200851917,7.77263273922501
7.29622804163955,-4.95451305270195,-3.19578285098076,5.9554049295187,8.38015963419268
7.30620204168372,-4.81311539143324,-3.75962517857552,5.57251521527767,8.26763491448018
7.31617604161147,-3.42864879906178,-3.55261941879988,4.99123941421509,7.02062733750738
7.32615004165564,-1.52191796779633,-2.65588311731815,3.94171858370304,4.99070083522012
7.3361240416998,0.613018288314343,-1.5021206112206,2.75792930960655,3.19973933770369
7.34609804162756,2.07816417753696,-0.951660879179835,1.48424201846123,2.72532551214072
7.35607204167172,1.9369811090827,-0.929588444083929,0.025059996843338,2.14864108118583
7.36604704160709,0.483796576559544,-1.14945932082832,-1.18819515109062,1.72253405621053
7.37602104165126,-0.989654697775841,-1.49118661031127,-1.9308231139183,2.63270427979342
7.38599504169542,-2.1091868725419,-1.61453610956669,-2.47935684621334,3.63353911266451
7.39596904162318,-2.59392748206854,-1.51282920196652,-2.96872961997986,4.22261382713348
7.40594304166734,-2.34241973340511,-1.27698643639684,-3.19890526413918,4.16540747768145
7.41591704159509,-1.50527649968863,-0.92960642427206,-3.06225758850575,3.53658691154675
7.42589104163926,-0.571935751140118,-0.658708796873689,-2.58032656610012,2.72380119873552
7.43586504168343,-0.0162871268391609,-0.498962938338518,-1.93388237714767,1.99728073464359
7.44583904161118,0.0745192551612854,-0.412634938806295,-1.12832609474659,1.20371943915497
7.45581304165535,-0.0231602364778519,-0.2785238584131,-0.341593168973923,0.441359070767417
7.46578704169951,0.0404563003778458,-0.199198338165879,0.297955983281136,0.360686093634533
7.47576104162727,0.276224806308746,-0.162523578330874,0.750207708477974,0.815797562507727
7.48573504167143,0.592229682505131,-0.127169046700001,1.07933344423771,1.23768681302208
7.49570904159918,0.969664529263973,-0.170070360302925,1.13703903079033,1.50400498147676
7.50568404165097,1.25123895317316,-0.126944001987577,0.939417759776115,1.56978324139394
7.51565804169513,1.4267720746994,-0.25732755549252,0.370743877887726,1.4964448025066
7.52563204162289,1.49116161346436,-0.316180073395371,-0.385127443671227,1.57221370816777
7.53560604166705,1.42296027481556,-0.343059431388974,-1.24047686040401,1.9186684336711
7.5455800415948,1.20256526827812,-0.316080122552812,-2.18153125584126,2.51100547362091
7.55555404163897,0.942010122835636,-0.257599670290947,-3.18808265268803,3.33430827339482
7.56552804168314,0.654827049672604,-0.281247930005193,-4.14534611463547,4.20616134655323
7.57550204161089,0.371252293288708,-0.184208708480001,-4.91824803650379,4.93567876407343
7.58547604165506,0.179077703654766,-0.0276262667030096,-5.49920867264271,5.50219302277074
7.59545004169922,-0.0184429952502251,-0.00733715929090977,-5.98393875718117,5.98397167671064
7.60542404162698,-0.242740725874901,0.056274261251092,-6.32387833356857,6.328785588899
7.61539804167114,-0.476806084066629,0.187254815474153,-6.37550807833672,6.39605438255945
7.62537204159889,-0.635579331368208,0.217382521033287,-6.15611703872681,6.19265639620153
7.63534604164306,-0.741414080858231,0.368491091877222,-5.75203701496124,5.81131743631098
7.64532104169484,-0.639095408320427,0.496713295206428,-5.31621771991253,5.37748434531269
7.65529504162259,-0.493814172595739,0.491457525417209,-4.6284968662262,4.68063736867228
7.66526904166676,-0.237081498205662,0.556545879542828,-3.76573668837547,3.81401674865287
7.67524304159451,0.197728859782219,0.665127285495401,-2.87606586992741,2.95858849725043
7.68521704163868,0.623678931891918,0.858762728869915,-1.97763709187508,2.24443696764736
7.69519104168285,0.95899862319231,0.942064282670617,-1.16089157760143,1.77618487971112
7.7051650416106,1.04041466921568,1.02605785444379,-0.474302160143852,1.53630073348355
7.71513904165477,0.708365033268929,1.092946639359,-0.041362618803978,1.30308259257752
7.72511304169893,0.271866145581007,1.29255113974214,0.248447608351707,1.34399622918275
7.73508704162668,-0.127221817821264,1.43575602918863,0.372237841486931,1.48867114465086
7.74506104167085,-0.702633884847164,1.55276977792382,0.315044471025467,1.73321706029358
7.7550350415986,-1.04134496122599,1.62479943484068,0.437825474739075,1.97890466623833
7.76500904164277,-1.21241928845644,1.5306925919652,0.756238526701927,2.09400980212287
7.77498304168694,-1.48991732597351,1.34413483768702,1.09589042007923,2.28637877722424
7.78495704161469,-1.78969632491469,1.2140621367842,1.49913195312023,2.63141718856062
7.79493204166647,-1.85159626543522,1.35986033946276,1.89338865458965,2.97700343808102
7.80490604159422,-1.5001790432632,1.92448443979025,2.25319414615631,3.32130416871354
7.81488004163839,-0.618436025977135,2.77166471153498,2.66550880372524,3.89480751438777
7.82485404168256,0.315365190804005,3.67811703890562,3.35332496702671,4.98726262492195
7.83482804161031,0.604642151892185,4.19368650823832,4.19588593840599,5.96305772815743
7.84480204165448,0.0560405918955803,4.05699088543654,5.158513635993,6.5629702517367
7.85477604169864,-0.368661976754665,3.452361305058,6.48669697701931,7.35744166850393
7.86475004162639,-0.22411427423358,1.8613163843751,8.06165971577168,8.2767797641084
7.87472404167056,0.125951729491353,-0.614077365249395,9.70897765517235,9.72919328399377
7.88469804159831,0.520830063074827,-2.79201126784086,10.8482386279106,11.2138696355203
7.89467204164248,0.573581742346287,-4.45092511296272,10.6290007853508,11.537564217431
7.90464554168284,-0.0322538262605667,-5.22286399841309,8.92445029914379,10.3404623589623
7.91461954161059,0.0646996604651213,-4.86329268783331,6.44741889059544,8.07620035439959
7.92459354165476,0.646597970724106,-3.86101180493832,3.8119372934103,5.46409800630532
7.93456754169893,1.15889431491494,-3.02990377485752,1.04685099184513,3.40870208688955
7.94454254163429,1.16305899426341,-2.61452049851418,-1.53177403450012,3.24572878627537
7.95451654167846,0.455655901059508,-2.34370729029179,-3.52770180165768,4.25972606679773
7.96449054160621,-0.205458586513996,-1.99438293278217,-4.45243077099323,4.88302327291531
7.97446454165038,-0.0694008949398995,-1.71328052535653,-4.44564098417759,4.76485785758441
7.98443854169454,0.909524308294058,-1.64149674385786,-3.30706588983536,3.80242433549785
7.9944125416223,1.68367797285318,-1.73846945330501,-1.4086568158865,2.80024312896025
8.00438654166646,2.08363512486219,-1.87738394826651,0.411349866986275,2.83466303744164
8.01436054159422,2.31823769599199,-1.97472313195467,2.21717003524303,3.76690860363969
8.02433454163838,2.34624849021435,-1.85417342573404,3.57049523413181,4.65738953572593
8.03430854168255,2.14048584848642,-1.62178870350122,4.20837792992592,4.99222626364855
8.0442825416103,1.87184634268284,-1.29125525057316,4.07424572646618,4.66590045890135
8.05425654165447,1.42130448952317,-0.979396781176329,3.36614615678787,3.78289101822601
8.06423054169864,0.767946479693055,-0.694548647403717,2.14815067112446,2.38467836932693
8.07420454162639,0.374114724621177,-0.484587924107909,0.880375499725342,1.07230979846602
8.08417854167055,0.400026149153709,-0.178793894425035,-0.0999335932731628,0.449416176561216
8.09415254159831,0.622058522254229,0.0119794099777937,-1.06990539371967,1.23765821731324
8.10412754165009,0.880411460101605,0.138572725206614,-1.92633362174034,2.12251924879297
8.11410154169425,1.14717890672386,0.124000513628125,-2.7054821240902,2.94126318019721
8.12407554162201,1.24671817839146,-0.00471848376095295,-3.45288024544716,3.67106394248588
8.13404954166617,1.24651498764753,-0.128264303281903,-4.16419753789902,4.34865409989925
8.14402354159392,1.15298570349813,-0.247026442587376,-4.84905501008034,4.99036397335842
8.15399754163809,1.01376671478152,-0.307910283207893,-5.50188085019589,5.60296569543811
8.16397154168226,0.902184517756105,-0.32155900016427,-6.11058769404888,6.18519353467029
8.17394554161001,0.777815044820309,-0.241945066004992,-6.62526955604553,6.67515770219526
8.18391954165418,0.604592450559139,-0.142733896225691,-6.9243370950222,6.95214709294225
8.19389354169834,0.281041742563248,-0.164354414641857,-7.10767654180527,7.11512913850509
8.2038675416261,-0.133076415583491,-0.180430164635181,-7.12990180850029,7.13342583725033
8.21384154167026,-0.327496043667197,-0.107908610701561,-6.89730600178242,6.90591978009483
8.22381554159802,-0.147060104906559,0.0648431365191937,-6.44295103311539,6.4449553390176
8.23378954164218,0.294862513840199,0.292555787265301,-5.95302043497562,5.96749403769857
8.24376354168635,0.633735850453377,0.677417036443949,-5.37097689449787,5.45049610316752
8.2537375416141,1.14557508856058,0.966466394662857,-4.60646865069866,4.84416690519771
8.26371154165827,1.59411076202989,1.0781037016958,-3.58889466762543,4.07230421856471
8.27368654159363,1.74335962593555,1.15439217813313,-2.41685595810413,3.19579674079885
8.2836605416378,1.85258122891188,1.20974331021309,-1.34013680398464,2.58679391133429
8.29363454168197,2.08767189636827,1.34718562245369,-0.352545003890991,2.50949617015056
8.30360854160972,2.26053225561976,1.56891934901476,0.465744760036469,2.79077626905342
8.31358254165389,2.30413567364216,1.75946431964636,1.03240778446198,3.07743752626706
8.32355654169805,2.17147726088762,1.8497273491323,1.33009888887405,3.14737474967059
8.33353054162581,1.60017841771245,1.75510141968727,1.32088543117046,2.71766265091519
8.34350454166997,0.765411930978298,1.44562978371978,1.07727873265743,1.95862971577009
8.35347854159772,0.0694519118964672,1.08584256470203,1.01189867556095,1.48587232728346
8.36345254164189,-0.29378165602684,0.893759337812662,1.23335085868835,1.55121492900646
8.37342654168606,-0.177427034676075,0.980595752745867,1.59930820584297,1.88436597300361
8.38340054161381,0.377037966996431,1.46317260012031,2.16374402582645,2.63909452191453
8.39337454165798,1.21463903769851,2.19334745541215,2.83344200670719,3.78345274285764
8.40334854170214,2.46772088706493,2.94901514768601,3.69596303343773,5.33352411284287
8.4133225416299,3.68174260497093,3.4183027356863,4.58934624910355,6.8045662019132
8.42329654167406,4.1513032579422,3.3216640484333,5.32474588394165,7.5246056055191
8.43327054160181,3.11217409908772,2.66694663405418,5.93595475137234,7.21344513961707
8.4432455416536,0.937516245245934,1.95097612738609,6.41464583158493,6.77000189840449
8.45321954169776,-1.54459288537502,0.918426840305328,6.48759160101414,6.73187342603035
8.46319354162552,-3.06060136467218,-0.507826294004917,6.69400240659714,7.37799677946828
8.47316754166968,-4.00157243728638,-1.86912753358483,6.91141884148121,8.2020686482153
8.48314154159743,-4.55287365674973,-3.11986815780401,7.15289189100266,9.03471628003761
8.4931155416416,-4.08468505293131,-3.60244500517845,7.23311919808388,9.05429595996647
8.50308954168577,-2.80303619295359,-3.4153887757659,6.38726624429226,7.7665347784009
8.51306354161352,-1.73167425781488,-2.75462972581387,4.83143793404102,5.82490112980527
8.52303754165769,-1.1589270593226,-1.74493925124407,3.14555234491825,3.77920950384906
8.53301154170185,-1.18932673349977,-1.33702564671636,1.37266544938087,2.25529290667942
8.54298554162961,-2.06372009307146,-1.13096757441759,-0.167237969040871,2.35923648988816
8.55295954167377,-3.22485783845186,-0.980533918440342,-1.4696789431572,3.6771063405069
8.56293354160152,-4.18923005282879,-0.905339017510414,-2.48134782314301,4.95241094736363
8.57290754164569,-4.5390204334259,-0.783031930625439,-3.13263584554195,5.57039072599142
8.58288154168986,-4.40885147273541,-0.514897770434618,-3.26997583150864,5.5132416019335
8.59285554161761,-3.83884442567825,-0.443057563304901,-2.91206717669964,4.83871488833286
8.60283054166939,-3.0200161331892,-0.351169154047966,-1.9620232719183,3.61847378586978
8.61280454159714,-2.31201333492994,-0.112686370611191,-0.84636575460434,2.46463767511218
8.62277854164131,-1.73996984884143,0.00836349181830883,-0.0412690633535385,1.74047928986895
8.63275254168548,-1.04150736764073,0.129033358320594,0.876736777424812,1.36749938987141
8.64272654161323,-0.285091816484928,0.223193703219295,1.61636745750904,1.65642281156644
8.6527005416574,0.49675985366106,0.174013430178165,2.12042317450047,2.18477583862747
8.66267454170156,1.09780933007598,0.189678705632687,2.12801344513893,2.40200011641641
8.67264854162931,1.42863645941019,0.193322105705738,1.52741727411747,2.10032833123372
8.68262254167348,1.38336453840137,0.170934286415577,0.232038567066193,1.41306683245519
8.69259654160123,1.19919084012508,0.0790171527117491,-1.26275884509087,1.74323328396339
8.7025705416454,1.16818510204554,0.0610969716310501,-2.55035958588123,2.80583735984107
8.71254454168957,0.956189036071301,-0.0587819858640432,-3.93465748608112,4.04960273697795
8.72251854161732,0.743280365914106,-0.244303248077631,-5.17646575748921,5.23526002389881
8.73249254166149,0.605601241439581,-0.408161087930203,-6.23049362182617,6.27314905840361
8.74246654158924,0.433643107563257,-0.535158372670412,-7.05655550479889,7.09009283584382
8.75244054163341,0.231467294096947,-0.619651077389717,-7.60067283511162,7.62940181877652
8.76241454167757,-0.101999414563179,-0.841367847025395,-7.8420763027668,7.88774140505354
8.77238854160532,-0.347278124392033,-0.61501628190279,-7.8851042085886,7.91667325983512
8.78236254164949,-0.637129282057285,-0.480016205459833,-8.0357641518116,8.07526190182704
8.79233754170127,-0.863821155130863,-0.306924588829279,-7.91453558385372,7.96745023199809
8.80231154162902,-0.985338575541973,0.0957133653759957,-7.45655358731747,7.52198408382387
8.81228554167319,-0.989276967644692,0.156714442670345,-6.72658893942833,6.80075195072525
8.82225954160094,-0.938193352818489,0.145063719302416,-5.58277415513992,5.66291599065613
8.83223354164511,-0.986340642124415,0.152942842394114,-4.26081575989723,4.37616388120173
8.84220754168928,-1.01068508595228,-0.220891362056136,-2.85839266061783,3.03984965731387
8.85218154161703,-1.05036312192678,-0.662202581316233,-1.27728566765785,1.78135724193937
8.8621555416612,-0.865033721476793,-0.846927818208933,0.401732951402664,1.27552319962862
8.87212954158895,-0.640863460153341,-0.694077434912324,1.83732438147068,2.06596474872172
8.88210354163311,-0.638228558599949,-0.202323748022318,2.6185328578949,2.70277356060429
8.89207754167728,-0.969099395871163,0.570927544981241,2.64650769174099,2.8756068686697
8.90205154160503,-1.19619823515415,1.47391671270132,2.20552413582802,2.90992395218262
8.91202545829583,-1.26953386768699,2.22584057897329,1.94009504377842,3.2140397171009
8.92199945834,-1.43985273465514,2.72435430496931,1.87637325704098,3.60777755359685
8.93197345826775,-1.23339061975479,2.84654766350985,2.16462695538998,3.78281586619457
8.94194745831192,-0.567722978442907,2.89480502665043,3.15551424622536,4.31966152385854
8.95192145835608,-0.0281945429742336,2.83275583595038,4.34379125833511,5.18592547713067
8.96189545828383,0.694936317801476,2.71319226264954,5.46472237944603,6.14064649888911
8.971869458328,1.39487522095442,2.58895822584629,6.42235187709332,7.06363824175714
8.98184445826337,1.20231734633446,2.14897249728441,6.86300272643566,7.29139604043319
8.99181845830753,-0.428484182283282,1.46105839312077,6.58407124400139,6.75783134360881
9.0017924583517,-2.64214859247208,0.273001967221499,5.6701157695055,6.26144488903352
9.01176645827945,-3.94017579585314,-1.24970566704869,5.24521088719368,6.67824728559939
9.02174045832362,-4.48470710903406,-2.79224194049835,5.21737463235855,7.42497211863299
9.03171445836779,-4.16508075982332,-3.79228480160236,5.50128092586994,7.87358962466645
9.04168845829554,-2.76427529275417,-3.85167789459229,5.44703455209732,7.2212759197779
9.05166245833971,-0.541665665879846,-3.00973731279373,4.93749999403954,5.80782459934495
9.06163645826746,1.71974798440933,-1.97879513293505,4.06375231325626,4.83603620452774
9.07161045831163,2.90602174043655,-1.7310901209712,2.93329081535339,4.47725701409363
9.08158445835579,2.50002236813307,-1.99286748066545,1.82255139112473,3.68012584159159
9.09155845828354,1.43057744264603,-2.12092691212893,0.976756909489632,2.73841867621372
9.10153245832771,0.503093046024442,-2.34817193180323,0.204505782723427,2.41015282698711
9.11150645825546,0.071147677525878,-2.32614722460508,-0.373875646591187,2.35707570978729
9.12148045829963,0.340148248896003,-2.17361061751843,-0.454528630971909,2.24652625717774
9.1314544583438,1.16176076620817,-1.98306491598487,0.0180293047428131,2.29838195144762
9.14142845827155,1.68835808426142,-1.88881262362003,0.639695917367935,2.61292499213707
9.15140245831572,2.03927376151085,-1.75952556923032,1.18115685760975,2.9410371003169
9.16137645835988,2.29248100340366,-1.47571794748306,1.63509491980076,3.17911119784265
9.17135045828763,2.21555561900139,-1.24239445477724,1.69851323604584,3.05567961265129
9.18132545833942,1.82614889055491,-1.01429128311574,1.46929711997509,2.55390692944097
9.19129945826717,1.14164144732058,-0.846606879159808,1.03922271430492,1.76070220423791
9.20127345831133,0.373968324959278,-0.662376682162285,0.398522830009461,0.858729074379058
9.2112474583555,-0.00212707087397575,-0.416836309432983,-0.19937835931778,0.462070085004929
9.22122145828325,-0.0439435067027807,-0.166307823210955,-0.600383332371712,0.624539405988337
9.23119545832742,0.0162386680394411,-0.0137112821638584,-0.834937956333161,0.835208407838467
9.24116945825517,0.260253648385406,0.0621197958290577,-1.02835917234421,1.06259748629301
9.25114345829934,0.501647248864174,0.0947029665112495,-1.21541160106659,1.3182731030277
9.26111745834351,0.721053564324975,0.0701271191239357,-1.50058206260204,1.66630806937534
9.27109145827126,1.01420218616724,0.0584350267052651,-1.8774479752779,2.13467365811441
9.28106545831543,1.24991031959653,0.0869968479126692,-2.3843138641119,2.69347301103554
9.29103945835959,1.48535781338811,0.0646555870771408,-3.04176368236542,3.38567489255697
9.30101345828734,1.48632099598646,0.0174239717423916,-3.78491730988026,4.0663316073007
9.31098745833151,1.35754849657416,-0.0481436347961426,-4.47947005033493,4.68090884999588
9.32096145825926,1.15183519072831,-0.0840133061259985,-5.16400124788284,5.29156795575205
9.33093545830343,0.986929310560227,-0.128601468354464,-5.79686235487461,5.88168181416406
9.3409094583476,0.917882610708475,-0.121100148484111,-6.14656093418598,6.21589776706995
9.35088345827535,0.826280276477337,-0.10299139469862,-6.18652723789215,6.24231251923988
9.36085745831952,0.782461388558149,0.0257441210746765,-6.125088788867,6.17491872463585
9.37083145836368,0.835451049506664,0.0959979785978794,-5.90086794912815,5.96048962930601
9.38080545829143,1.03897362291813,0.236004294902086,-5.6197303122282,5.71983679824069
9.3907794583356,1.17964696034789,0.453743788450956,-5.24480742931366,5.3949472052282
9.40075445827097,1.41729227632284,0.564619714915753,-4.77626477658749,5.01400219735355
9.41072845831513,1.76815269738436,0.753125907629728,-4.01573848664761,4.45193420741519
9.4207024583593,2.07086772948504,0.973705686181784,-3.22472013652325,3.95416437129563
9.43067645828705,2.10341333180666,1.11336657822132,-2.44017056107521,3.40857230362807
9.44065045833122,1.96040432408452,1.48750724986196,-1.6785999584198,2.97885225425635
9.45062445825897,1.80094095915556,1.65580049514771,-1.05969381630421,2.66608600806668
9.46059845830314,1.37908335328102,1.8168364687264,-0.42637253344059,2.32046529529394
9.47057245834731,0.659801422208548,1.78591390728951,0.110497173070908,1.90710147245896
9.48054645827506,-0.0130504006147385,1.52744095534086,0.47729651927948,1.60033063843854
9.49052045831922,-0.509220708757639,1.14691987507045,0.877291093468666,1.53113376056395
9.50049445836339,-0.861873009055853,0.750739001110196,1.16178093910217,1.62977577659875
9.51046845829114,-1.41815152466297,0.466082436740398,1.33612093627453,2.00339854774154
9.52044245833531,-1.85624743312597,0.765587859079242,1.54046884417534,2.53077528888505
9.53041645826306,-1.56435632809997,1.66540074616671,1.82676255583763,2.92537720679051
9.54039045830723,-0.241316636502743,2.97590210705996,2.15209812641144,3.6804555989117
9.5503644583514,1.88555952519178,4.23909598499537,2.46687888801098,5.25459426988988
9.56033845827915,3.66602382749319,4.4665810328722,3.12147935807705,6.56762591884333
9.57031245832332,3.65840490549803,3.53360339641571,4.30802325546742,6.66553402102043
9.58028645836748,1.64503781765699,2.37689725577831,5.71815883219242,6.40727168272334
9.59026045829523,-1.04729654967785,0.974748683273792,6.94136360228062,7.08727689014457
9.6002344583394,-2.88771235406399,-0.641106485053897,7.7321679443121,8.27866663684675
9.61020845826715,-3.73062415838242,-2.0601980227232,8.1463186275959,9.19371957839998
9.62018345831893,-4.07272895872593,-3.13955310165882,8.20741033673287,9.6853239122339
9.6301574583631,-3.77288578659296,-3.56641329288483,7.82389087736607,9.38974117828989
9.64013145829085,-2.57294328689575,-3.46253750681877,6.76877484619618,8.02655069517453
9.65010545833502,-0.871492409706116,-3.16355533719063,5.27569300711155,6.21293152198931
9.66007945826277,0.470247993171215,-2.71108551084995,3.86354657292366,4.74321725660677
9.67005345830694,1.00892785146832,-2.29822121500969,2.31315675795078,3.4132756040851
9.68002745835111,0.550598968863487,-2.03368513897061,0.43832424223423,2.15201361759485
9.69000145827886,-0.921083230376244,-1.67812063291669,-1.47214529871941,2.41489025763961
9.69997545832302,-2.66226476848125,-1.50187137365341,-3.22807234525681,4.44564082970137
9.70994945836719,-4.1336136764288,-0.980167736560106,-4.61187147796154,6.27031493204191
9.71992345829494,-4.77010765850544,-0.466770361661911,-5.17668385863304,7.05477550432968
9.72989745833911,-4.55347621232271,-0.123739508539438,-4.78060750365257,6.6033071400732
9.73987145826686,-3.72225825458765,-0.0905754169821739,-3.21241584062576,4.91762401502095
9.74984545831103,-2.90911608695984,-0.40873703867197,-1.1284319293499,3.1469637737615
9.7598194583552,-2.6740480774641,-0.558339074403048,0.811625107526779,2.84973875254603
9.76979345828295,-2.18123129367828,-0.584870961606503,2.5833957695961,3.43129388141252
9.77976745832712,-1.26086420103908,-0.391167763620615,4.07125195205212,4.27993962689265
9.78974145825487,-0.30469124481082,-0.102892065122724,4.98324100792408,4.99360736089511
9.79971545829903,0.665621886849403,0.017537919357419,5.44660185813904,5.48715152660759
9.8096894583432,1.53909547939897,0.0919783832877874,5.49617162883282,5.70834279728236
9.81966345827095,2.12848750814796,0.146885492429137,4.72014846324921,5.17994555331829
9.82963745831512,2.12943636506796,0.0246924262493849,3.04580761671066,3.71645704761949
9.83961145835929,1.7497270976007,-0.22410535722971,1.05806302785873,2.05700401023887
9.84958545828704,1.5662502412498,-0.46042722903192,-0.886498703956604,1.85769023347969
9.85956045833882,1.28063904583454,-0.626003200113773,-2.89106807112694,3.22338191410176
9.86953445826657,0.986648059487343,-0.777972919642925,-4.66894673466682,4.835057380026
9.87950845831074,0.867842139154673,-0.863733739256859,-6.16697297930718,6.28734774593612
9.88948245835491,0.768647633939982,-1.05385157078505,-7.34368653774262,7.45862951774854
9.89945645828266,0.598113589435816,-1.12750880017877,-8.05472608745098,8.15522092307816
9.90943066659384,0.482693206965923,-1.09835721418262,-8.36196978807449,8.44759847759519
9.919404666638,0.361490220576525,-1.06971915990114,-8.42683470547199,8.50214781181669
9.92937866668217,0.283916233778,-1.00261519744992,-8.19269055604935,8.25869385612159
9.93935266660992,0.339956533312798,-0.838807936012745,-7.73532777965069,7.78809765325883
9.94932666665409,0.358039193898439,-0.594110585600138,-7.24289691209793,7.27603704852905
9.95930066669826,0.366404220610857,-0.251918515563011,-6.65220533967018,6.66704963777092
9.96927466662601,0.312471696138382,0.0883790566027164,-6.01463430047035,6.02339399233755
9.97924866667017,0.243483322262764,0.328898132890463,-5.39139069378376,5.4068985308638
9.98922266659793,0.0752266220748425,0.483256440013647,-4.53588574111462,4.5621765954345
9.99919666664209,-0.204392346739769,0.454182475805283,-3.47515579819679,3.51066457732367
10.0091706666863,-0.453080275654793,0.397939131706953,-2.29069234013557,2.36873567243939
10.019144666614,-0.664461653083563,0.341393925100565,-1.1048115170002,1.33366697065287
10.0291186666582,-1.05220250979066,0.254314119815826,-0.189652685523033,1.09898768613373
10.0390926667023,-1.52197658613324,0.29344500258565,0.395058354735375,1.59956050274021
10.0490666666301,-1.86364503800869,0.63734709084034,0.546032293438912,2.04390200532589
10.0590406666743,-2.1620372235775,1.00741342261434,0.34826191842556,2.41051304166223
10.069014666602,-2.44454208567739,1.26718811094761,0.214865294694901,2.76183250977304
10.0789886666462,-2.85165082097054,1.63323214307427,0.345057644248009,3.30430392303234
10.0889626666904,-3.30784649312496,1.87815738871694,0.614032487869263,3.8530973897671
10.0989366666181,-3.47052597284317,1.96002147763968,1.29116052567959,4.18966946477417
10.1089116666699,-3.10800620377064,2.27558971300721,2.42212722301483,4.55024300330109
10.1188856665976,-2.15205704972148,2.67041929543018,3.61831259429455,4.98544629784459
10.1288596666418,-0.945396976321936,3.05722898304462,4.6837378513813,5.67255011067057
10.138833666686,0.434231045097113,3.41727859586477,5.94824442923069,6.87371525393332
10.1488076666137,1.68079953476787,3.87279394447804,7.18347575247288,8.3322232266561
10.1587816666579,2.36073730587959,3.97878466844559,8.09192431926727,9.3211076194827
10.1687556667021,1.97837851881981,3.79503650128841,8.53917609035969,9.55163922643698
10.1787296666298,0.65140628233552,3.33252408206463,8.35560333967209,9.01921027984969
10.188703666674,-0.762827900201082,2.37757319390774,7.76314006090164,8.1548209240234
10.1986776666017,-1.52026422902942,1.10092589601874,7.39790952265263,7.63231986095614
10.2086516666459,-2.14591966599226,-0.578944552727044,7.05127079129219,7.39327855421092
10.2186256666901,-3.24235416948795,-2.57312045753002,6.36601512372494,7.59341543739377
10.2285996666178,-4.31840761810541,-4.64286873757839,5.30829942047596,8.26939642343497
10.238573666662,-4.59448010444641,-6.27985347747803,3.82222546935082,8.66921072920141
10.2485476665897,-3.97015066981316,-7.0665004491806,2.13043360769749,8.38070834095153
10.2585216666339,-2.85629526436329,-6.80087079763413,0.569245739579201,7.39826377979089
10.2684956666781,-1.49681601718068,-5.46301440775395,-1.15174360871315,5.78026798244056
10.2784696666058,0.0872720324993134,-3.41917806386948,-3.07203764140606,4.59736993402951
10.28844366665,1.66836440742016,-1.26944031223655,-4.81988325119019,5.25606250508699
10.2984176666942,2.73328738868237,-0.0181661295890808,-6.08763094067574,6.67311324849705
10.3083916666219,2.70296109706163,0.232321133762598,-6.00119564473629,6.58591838454009
10.3183656666661,1.9850867369771,-0.0085733337700367,-4.20811480522156,4.65283494971605
10.3283396665938,0.957690089419484,-1.02232952356339,-1.92981505393982,2.38464129473059
10.338313666638,-0.119132706597447,-2.06341340661049,0.407987717986107,2.10673241451985
10.3482876666822,-0.867777819782496,-2.56560883194208,3.20552606642246,4.19652050936958
10.3582616666099,-1.11769856102765,-2.44073964133859,5.53655366957188,6.15303881071578
10.3682356666541,-0.734866661131382,-1.93717172831297,6.61863705933094,6.93534568985327
10.3782096666982,-0.136563475728035,-1.27712223798037,6.62310784041882,6.74649896312629
10.388183666626,0.333380754590035,-0.67410773165524,5.76508449196816,5.81392837597266
10.3981586666778,0.425563790425658,-0.203198052942753,4.34433504939079,4.36985594840453
10.4081326666055,0.319381350874901,0.0530309569090605,2.86689392745495,2.88511655240398
10.4181066666497,0.307174118757248,0.0764985376596451,1.3338972401619,1.370944861331
10.4280806666939,0.224657626748085,0.0883268702030182,-0.224079337120056,0.329369449979968
10.4380546666216,0.201739026457071,0.0248263274878263,-1.76329161465168,1.77496825313393
10.4480286666658,0.336834997236729,-0.146708833426237,-3.17564328610897,3.19682523416244
10.4580026665935,0.466736009269953,-0.261688482016325,-4.43139833629131,4.4635876353954
10.4679766666377,0.715589487478137,-0.382850464805961,-5.38198018491268,5.44282587483599
10.4779506666819,0.891772161573172,-0.505182329267264,-6.09139245450497,6.17701617358744
10.4879246666096,0.9176802970469,-0.548229092359543,-6.38639559388161,6.47524060918572
10.4978986666538,0.914796596467495,-0.559509102255106,-6.26326258778572,6.3543970203294
10.507872666698,0.944928906708956,-0.553512197881937,-5.94799299895763,6.0479655345899
10.5178466666257,0.771254468858242,-0.630271375179291,-5.76186150670052,5.84731763157273
10.5278206666699,0.380152047872543,-0.64409974783659,-5.72805524468422,5.77667698169278
10.5377946665976,0.0165097595751286,-0.591182738542557,-5.91765296638012,5.94713260597234
10.5477686666418,-0.166699732840061,-0.491476894319058,-6.25455491423607,6.27604935558772
10.557742666686,-0.133139492422342,-0.295552339106798,-6.4873600512743,6.49545362114638
10.5677166666137,-0.0267074498534203,-0.0851258119940758,-6.50208334028721,6.50269539927758
10.5776906666579,0.29480915799737,0.199525416791439,-6.09276011824608,6.10315071828272
10.587664666702,0.797161873430014,0.5297729408741,-5.21158004164696,5.29874446938383
10.5976386666298,1.06529851868749,0.766592629998922,-4.450398863554,4.63988957185504
10.607612666674,1.36643027096987,0.922794418036938,-3.83676924884319,4.17606028359885
10.6175866666017,1.76642528370023,1.0564366979152,-3.09181701779366,3.71424948692409
10.6275606666459,2.02131681606174,1.09004795528948,-2.29179278612137,3.24441680279256
10.63753466669,1.84910695955157,0.979052233994007,-1.62821333169937,2.65119189767061
10.6475086666178,1.3930264775455,0.93268235206604,-1.06899030447006,1.98825536791662
10.657482666662,0.862392826527357,0.950978362932801,-0.631744873523712,1.43079796590423
10.6674566665897,0.507898507118225,1.07109691008925,-0.318996019363403,1.227586226994
10.6774306666339,0.386024698913097,1.24533019557595,-0.0961580461263657,1.3073288545806
10.687404666678,0.494322149455547,1.47909398362041,0.400449487566948,1.61010347242563
10.6973786666058,0.75985195979476,1.73171548068523,1.03582197368145,2.15618660324429
10.70735266665,1.21018448263407,1.81055787473917,1.80632829129696,2.82939714351452
10.7173276667017,1.52382649898529,1.8032301440835,2.73348560929298,3.61187343739409
10.7273016666295,1.80832116857171,1.86294541865587,3.926129322052,4.70691858173391
10.7372756666737,2.23102472037077,2.28102718502283,5.08697412192822,6.00481990062033
10.7472496666014,3.07241069376469,2.93783468663692,5.96694733321667,7.32632517668634
10.7572236666456,4.22410343170166,3.64073871284723,6.56859775722027,8.61652509269818
10.7671976666898,4.92077929615974,3.9901177418232,6.97294616818428,9.42109795828079
10.7771716666175,4.69835092037916,3.77539278030396,7.30758115053177,9.47253051133678
10.7871456666617,2.90200499564409,2.76445070922375,7.5704725509882,8.56597194507061
10.7971196665894,-0.0469747763872147,1.50293191239238,7.71558231711388,7.86073924354856
10.8070936666336,-2.25834247335792,0.364185202270746,7.75918091118336,8.08935287900074
10.8170676666778,-3.90551788687706,-1.08122392214835,7.29093354284763,8.34145233522096
10.8270416666055,-4.84445442080498,-2.45025978550315,6.72326947510243,8.64146191836514
10.8370156666497,-5.12339584350586,-3.35198741644621,6.10007440030575,8.64267969431544
10.8469896666938,-4.86674576103687,-3.71544829487801,5.37065120458603,8.14454815786632
10.8569636666216,-3.90758283108473,-3.29223296552897,4.30713506340981,6.68276992986875
10.8669376666658,-2.77194274663925,-2.61001375705004,2.82873499810696,4.74316140270933
10.8769116665935,-2.14807363405824,-1.82300338089466,1.40683423876762,3.14908625468697
10.8868856666377,-2.18601577788591,-1.58456182032824,-0.0291045159101486,2.70006448375857
10.8968596666818,-3.25516775786877,-1.8868413810432,-1.3967010140419,4.01336034411452
10.906837333343,-4.70671419292688,-2.19733978807926,-2.20309929549694,5.64226081850128
10.9168113332707,-5.44142648756504,-2.30522764116526,-2.63848355770111,6.47184611849091
10.9267853333149,-5.24485537648201,-2.20928038716316,-2.77038154006004,6.32964782802499
10.9367593333591,-3.9585743522644,-1.80855315685272,-2.48765755355358,5.01294479595773
10.9467333332868,-2.16745379179716,-1.36666825264692,-1.59254707038403,3.01692628742527
10.956707333331,-1.01115052431822,-1.01441904477775,-0.569211825728416,1.54125711151186
10.9666813332587,-0.709257026016712,-0.949667344093323,0.18025387108326,1.1989182838842
10.9766553333029,-0.58248792886734,-0.811416946649551,0.970344268083572,1.39257231309146
10.9866293333471,-0.391970440149307,-0.720006181821227,1.54778254151344,1.75147952418104
10.9966033332748,-0.215794124901295,-0.60552588544786,1.98636523067951,2.08779202315312
11.006577333319,-0.0260043221712112,-0.433717294111848,2.22408787608147,2.26613190183534
11.0165513333632,0.278681221604347,-0.327929614707828,2.23913100779057,2.28011155988616
11.0265253332909,0.703133529424667,-0.18724341340363,1.94489560782909,2.07655382338555
11.0364993333351,1.2218873924017,-0.0406528399139643,1.33412586629391,1.80957267889901
11.0464733332628,1.71396830409765,0.0460170755535364,0.433162904977798,1.76845554678162
11.056447333307,2.02274836063385,0.0149979619681835,-0.644041568040848,2.12285784042989
11.0664213333512,2.10232662677765,-0.0494408395886421,-1.73812578320503,2.72824171959151
11.0763963332865,2.10156941235065,-0.181141624599695,-2.83308649599552,3.53210778103991
11.0863703333307,2.05221920460463,-0.257712887004018,-3.91055818676949,4.42385408077457
11.0963443332585,1.94177933424711,-0.258755372464657,-5.01057381749153,5.37989881932924
11.1063183333026,1.77752432227135,-0.321034651100636,-6.07091258168221,6.33392733917124
11.1162923333468,1.47957155495882,-0.351325786337257,-6.94050815463066,7.10515413195826
11.1262663332745,1.01684132695198,-0.452799536213279,-7.57574732422829,7.65708438145646
11.1362403333187,0.459045020341873,-0.524552912190557,-7.85266327142716,7.88353972164847
11.1462143333629,0.117173670083284,-0.490997057184577,-7.82522872030735,7.84149298949172
11.1561883332906,-0.0733914734423161,-0.431532993614674,-7.57323886871338,7.58587859087813
11.1661623333348,-0.0626182709634304,-0.357381309047341,-7.24968669891358,7.25876020270123
11.1761363332625,-0.0172918246686459,-0.193329195454717,-6.81181269228458,6.81457756135954
11.1861103333067,0.0747978749871254,-0.00295496352016926,-6.14934303939343,6.14979863654481
11.1960843333509,0.204887021183968,0.234271545633674,-5.30053724169731,5.30966636420438
11.2060583332786,0.25494196459651,0.336966851949692,-4.51743368268013,4.53715209597807
11.2160323333228,0.297653828412294,0.269469920061529,-3.66465294778347,3.68658284419115
11.226006333367,0.258872462958097,0.223584881946445,-2.82162536859512,2.84228339055284
11.2359803332947,0.204478008449078,0.266140771284699,-2.00702578246593,2.03489426201027
11.2459543333389,0.114924100041389,0.400477481111884,-1.26360669136047,1.33052306710519
11.2559283332666,-0.099072006046772,0.541684157699347,-0.66542308151722,0.863727310266646
11.2659023333108,-0.562222648859024,0.841926109939814,-0.525130836367607,1.14048072179787
11.275876333355,-1.01107714176178,1.29103188693523,-0.630988828539848,1.75703933405568
11.2858503332827,-1.60965485394001,1.76556048050523,-0.931325213313103,2.5642853218952
11.2958243333269,-2.15745505303144,2.29684419572353,-1.1514617729187,3.35499177044786
11.3057983332546,-2.10283533453941,2.75488027900457,-0.84046123623848,3.56618239654891
11.3157723332988,-1.64091626152396,2.89791574537754,0.150306771397591,3.33363374865458
11.325746333343,-1.32674770340323,2.82972931712866,1.58284186184406,3.50328643366613
11.3357203332707,-0.955103792846203,2.55546420514584,3.45422978281975,4.40162742078539
11.3456943333149,-0.29327791839838,2.3430173188448,5.79456907689571,6.25721766288682
11.3556683333591,0.545582350194454,2.44800261408091,8.22130566000939,8.5953617524042
11.3656423332868,1.2185980412364,2.58236344367266,10.2791291284561,10.6683680936119
11.375616333331,1.48211377814412,2.63145315796137,11.6147372639179,12.0009719891246
11.3855903332587,0.821266289055348,2.21719664007425,11.9136258780956,12.1459837321448
11.3955643333029,-0.904347183555365,1.50193657010794,11.0407500171661,11.1790794894117
11.4055383333471,-2.15453948512673,0.527095208466053,9.72999898016453,9.97961672138569
11.4155123332748,-2.57159374952316,-0.631148822978139,8.66414219856262,9.05973527683049
11.425486333319,-2.57287370502949,-1.88731851384044,7.72586464583874,8.35886564077554
11.4354603333632,-2.61497424244881,-3.19812992334366,6.96394204080105,8.09707441258218
11.4454343332909,-2.5062250944972,-4.06133975207806,6.22816642999649,7.84638145171596
11.4554083333351,-1.72968649685383,-4.46984260976315,5.16451755702496,7.0458179035703
11.4653823332628,-0.344712073802948,-4.33261284381151,4.05041715323925,5.94106384273396
11.475356333307,1.08656915433705,-4.0614736533165,3.01417359530926,5.173146356561
11.4853303333512,2.12567090436816,-3.83135004937649,2.01134921371937,4.82112493657488
11.4953043332789,2.28771639972925,-3.87577748626471,0.941968315243721,4.5981084975835
11.5052783333231,1.82333374857903,-3.91594113349915,-0.299497309327126,4.32999302055234
11.5152523333672,1.28661022245884,-3.56318416804075,-1.70512000501156,4.15440507310042
11.525226333295,1.1123440463841,-3.13867075681686,-3.08350520074368,4.53834416062035
11.5352003333392,1.30503669932485,-2.5930179476738,-3.8237954467535,4.80086184785148
11.5451743332669,1.99380171954632,-2.0134602047503,-3.58747905671597,4.57157229794681
11.5551493333187,2.51110459595919,-1.79947433128953,-2.43543782472611,3.93384183196578
11.5651233333629,2.41682759910822,-1.76678737252951,-1.07282490849495,3.18018026970612
11.5750973332906,2.22092277824879,-1.77113039195538,0.103886895775795,2.84256808878279
11.5850713333348,1.85780893206596,-1.61449240162969,0.866967834234238,2.60953501003165
11.5950453332625,1.44109906867147,-1.34067123949528,1.11624925553799,2.26278109825601
11.6050193333067,1.0948949316144,-1.09632238313556,0.98104408800602,1.83389344882697
11.6149933333509,0.714755455255508,-0.891147386580706,0.614026055932045,1.29693755547081
11.6249673332786,0.262401111423969,-0.681774746999145,0.177998015284538,0.75190055350925
11.6349413333228,0.00770034447312355,-0.453339014947414,-0.139546725153923,0.474393134730765
11.644915333367,-0.0269321291148663,-0.273637194111943,-0.601536403298378,0.661399046017808
11.6548893332947,0.184616186320782,-0.07807662807405,-0.997729117870331,1.01766521447348
11.6648633333389,0.391589786410332,0.118033640189096,-1.49197496116161,1.54701770699962
11.6748373332666,0.638621052950621,0.131593780964613,-2.07820978581905,2.17809772194326
11.6848113333108,0.736023094207049,0.0749798695743084,-2.96948508024216,3.06026038399158
11.694785333355,0.64887531504035,0.0293348962068558,-3.7412140506506,3.79718083364351
11.7047593332827,0.549071237593889,-0.00550612198188901,-4.59623485386372,4.62891827246969
11.7147333333269,0.356497867852449,-0.0959525895863772,-5.37354499161244,5.38621234320694
11.7247073332546,0.230428536236286,-0.231131225377321,-5.97796524167061,5.98686791104317
11.7346813332988,-0.176731654554606,-0.548280438221991,-6.48743957340717,6.51296535652294
11.744655333343,-0.214492388516665,-0.0431168200448155,-6.81868726372719,6.82219627725689
11.7546293332707,-0.174283717721701,0.0516550339758396,-7.6271572136879,7.6293230511697
11.7646033333149,-0.254081839174032,-0.0505164349079132,-7.87627374351025,7.8805328229697
11.774577333359,-0.00119137018918991,0.487115602344275,-7.56268464446068,7.57835615822927
11.7845513332868,0.364492619633675,0.653409392237663,-7.08244054377079,7.1218510767693
11.794525333331,0.566772805899382,0.780485175848007,-6.36676122844219,6.4394127886959
11.8044993332587,0.799968975484371,0.989623122811318,-5.5273618465662,5.67195145164484
11.8144733333029,1.22121700912714,1.15867255926132,-4.46312065064907,4.77004601919277
11.8244473333471,1.50689135447145,1.29212151557207,-3.40078330814838,3.93771846050041
11.8344213332748,1.76975498065352,1.3598208707571,-2.24942853927612,3.16876541343856
11.844395333319,1.92697126060724,1.3763950958848,-1.03587050557137,2.58470683124695
11.8543693333631,1.99312636613846,1.42916139319539,0.0711278700828552,2.45359209590735
11.8643433332909,1.9941031435132,1.51949546635151,1.00227883636951,2.69997716380459
11.8743173333351,1.82952945828438,1.56033578261733,1.74401100575924,2.97042087614798
11.8842913332628,1.31807759821415,1.56551656186581,2.33684324383736,3.10628508135657
11.894265333307,0.769495334029198,1.69571212738752,2.73315348744392,3.30721796590257
11.9042393333511,0.510344397425652,1.62942677512765,2.8033405405283,3.28240783658218
11.9142099582823,0.383044665455818,1.4923319336772,2.67151272475719,3.08395169458707
11.9241839583265,0.194977452456951,1.24824430167675,2.45691055476666,2.76270510872204
11.9341579583706,-0.0291954401135445,0.940195585638285,2.50745622575283,2.6780882802932
11.9441319582984,-0.0531340871751308,1.0417232760787,2.84578781783581,3.03092707257809
11.9541059583426,0.550432907938957,1.58054770678282,3.43076432168484,3.81723083799031
11.9640799582703,1.69349223196507,2.53528751045466,4.10699539661408,5.1149789724106
11.9740539583145,3.07529161691666,3.56022752344608,4.59255929410458,6.5745143864507
11.9840279583586,4.17823845684528,3.9524973410368,4.79977175295353,7.49117619026641
11.9940019582864,4.21338519304991,3.45903707116842,5.04167047977448,7.42536150442246
12.0039759583306,2.50992901325226,2.54076985985041,5.46310387015343,6.52692569502481
12.0139499582583,0.126160694360733,1.37481444731355,5.91840608775616,6.07729889876521
12.0239239583025,-1.62583453819156,-0.0420354140549898,6.63415615439415,6.83060266759069
12.0338979583466,-2.63480975210667,-1.48673190906644,7.66424902617931,8.23973951860878
12.0438719582744,-3.07345062106848,-2.81697800159454,8.3998088747263,9.37753981135481
12.0538459583186,-2.98700012236834,-3.58851196736097,8.42693761646748,9.63394340147148
12.0638199583627,-2.23602087378502,-3.60747507244349,7.70620455265045,8.79768460184804
12.0737939582905,-0.998362371325493,-2.93056133508682,6.27220648884773,6.99467593258817
12.0837679583346,0.0153290605545044,-2.28075499713421,4.28990156471729,4.85853205937905
12.0937419582624,0.28910973072052,-2.01396935105324,2.28360902309418,3.05851714949193
12.1037159583066,-0.363274059891701,-2.33063379317522,0.33211424767971,2.38204151810844
12.1136899583507,-1.89086499631405,-2.67386447489262,-1.23276379823685,3.49923252251431
12.1236639582785,-3.39690806597471,-2.68558843463659,-2.43878886401653,4.96981496357651
12.1336379583227,-4.05517210900784,-2.41676254883409,-3.34842616975307,5.78766964031374
12.1436119583668,-3.39578803181648,-1.99543981701136,-3.80385585665703,5.47562560796174
12.1535859582946,-2.06072427213192,-1.59994569852948,-3.5753998786211,4.42604734001348
12.1635599583387,-0.929063802659512,-1.14576468452811,-3.05961932480335,3.39664638642795
12.1735339582665,-0.168965821266174,-1.19186398655176,-2.56109975159168,2.82989772762165
12.1835079583107,-0.125413420200348,-1.25161551386118,-1.96010947823524,2.32901247037709
12.1934819583548,-0.686495277285576,-1.29138593584299,-1.30819931209087,1.96222802986389
12.2034559582826,-1.15575245976448,-1.19876011960208,-0.739917193651199,1.82215998915044
12.2134299583267,-1.14657174646854,-0.792447994351387,-0.32991978764534,1.43228756185042
12.2234039582545,-0.763663321137428,-0.39926886163652,0.177106899619102,0.879752320722065
12.2333779582987,-0.15449045419693,-0.0945597828179598,0.749397869110107,0.770977314316915
12.2433519583428,0.395655940175056,0.0419521643221378,1.12833486557007,1.19642934431923
12.2533269582782,0.691434712707996,0.01581671833992,1.20713896036148,1.39122845001791
12.2633009583224,0.992928261458874,-0.0284302588552237,0.936326921582222,1.36507249481555
12.2732749583665,1.12896958082914,-0.130661003887653,0.220273969173431,1.15765505824053
12.2832479582867,1.2503937381506,-0.190751596614718,-0.776491527557373,1.4841865665696
12.2932219583308,1.33898051708937,-0.275108353570104,-1.90094325721264,2.34139674094143
12.3031969582662,1.31718969851732,-0.278210301473737,-3.0510630941391,3.3348726629579
12.3131709583104,1.01732576876879,-0.308933034315705,-4.25843769729138,4.38915515346687
12.3231449583545,0.735332099497318,-0.376485770568252,-5.31687319278717,5.38066867407484
12.3331189582823,0.538789055049419,-0.390978752374649,-6.19885843098164,6.23450109295055
12.3430929583265,0.381775527298451,-0.33609788261354,-6.86809565126896,6.88690440001318
12.3530669583706,0.14860260039568,-0.390476111099124,-7.24988082647324,7.26190927540738
12.3630409582984,-0.178309525698423,-0.502066786587238,-7.36485989034176,7.3841063473865
12.3730149583425,-0.344772884845734,-0.544236467331648,-6.93673786997795,6.96659127201279
12.3829889582703,-0.222614609599113,-0.479697239845991,-6.36672322154045,6.38864862752877
12.3929629583145,0.126159086376429,-0.250473083853722,-5.82532250761986,5.83206954678981
12.4029369583586,0.414387787878513,0.0621595568954945,-5.19970025360584,5.21655669734404
12.4129109582864,0.484424128979445,0.266207137182355,-4.47281474947929,4.50683977525093
12.4228849583305,0.529658627808094,0.328444535136223,-3.5285291826725,3.58314558281461
12.4328589582583,0.419454692602158,0.377351743206382,-2.55320484101772,2.61480238975017
12.4428329583025,0.220614277124405,0.35041954100132,-1.82242450654507,1.86887548971105
12.4528069583466,-0.0378095582127571,0.299338045790792,-1.22602020442486,1.26259984555997
12.4627809582744,-0.395848752111197,0.356292338222265,-0.621933245658875,0.818804877171395
12.4727549583185,-0.760425717830658,0.619822839349508,-0.135705104470253,0.990375433811259
12.4827289583627,-1.05051383391023,0.961612620949745,0.119037031531334,1.42914238719674
12.4927029582905,-1.31753249153495,1.42055911570787,0.219380514621735,1.94987381070333
12.5026769583346,-1.46993095815182,1.71275968462229,0.409126170873642,2.29382365989504
12.5126509582624,-1.76125005930662,1.77622887164354,0.831292217373848,2.63591303470619
12.5226249583066,-2.05976781383157,1.74255387961864,1.40423632085323,3.04154847324087
12.5325989583507,-2.13212403774262,1.5423083782196,1.86000865459442,3.22246803568513
12.5425729582785,-2.10462312072516,1.1973668012023,2.42643252789974,3.42792948430423
12.5525469583226,-1.88249163731933,1.45783277660608,3.2266456246376,4.01002408423156
12.5625209583668,-1.02723738402128,2.01911957859993,3.89014146387577,4.50169536117028
12.5724949582946,0.041250059902668,2.62198885470629,4.29202995121479,5.02971651524922
12.5824689583387,0.881249512284994,3.07354856193066,4.57899960100651,5.58484904106336
12.5924429582665,1.14832094103098,3.19366674363613,4.61875598967075,5.73158399965814
12.6024169583106,0.0172146414220333,3.0443230086565,4.41734630763531,5.36480636430561
12.6123909583548,-1.48734747469425,2.8442248570919,4.13639928996563,5.23561043568054
12.6223649582826,-2.10341070055962,2.58052098602057,4.2033762216568,5.3620701967907
12.6323389583267,-1.92781106695533,2.01853427231312,4.63133335053921,5.40741941430428
12.6423129582545,-1.40227691888809,0.864076093733311,5.52697066783905,5.76718413232671
12.6522869582986,-1.63880994826555,-0.641638874039054,6.37041106045246,6.60904952094833
12.6622609583428,-2.47178850263357,-2.21863008499146,6.59073180735111,7.3803660893082
12.6722349582706,-2.75979544848204,-3.45102901697159,6.28511772572994,7.68301874393957
12.6822089583147,-1.8362321215868,-4.24427924931049,5.49809185445309,7.18433495812091
12.6921829583589,-0.264425417482853,-4.58741491377354,4.56683914661407,6.47845013746109
12.7021569582867,0.953203740119934,-4.45653610110283,3.45494665145874,5.71891316204726
12.7121309583308,1.66619041264057,-4.04464682847261,1.90762896358967,4.77225384079421
12.7221049582586,1.78230749085546,-3.43006148636341,0.143560838699341,3.86814574526363
12.7320789583027,1.50994155451655,-2.61271721720696,-1.44729463219643,3.34677105693385
12.7420529583469,1.31725284844637,-1.84479507654905,-2.48586421251297,3.36421533559498
12.7520269582747,1.39048893213272,-1.17876651585102,-2.92830898761749,3.44933957392376
12.7620009583188,1.65847150325775,-0.845254783630371,-2.46019493579865,3.08505145799829
12.771974958363,1.77400108247995,-1.06971682101488,-1.06667597651482,2.33005827323612
12.7819489582907,1.62242721945047,-1.21452465154231,0.624933452010155,2.12082107473947
12.7919229583349,1.39366192370653,-1.57647015094757,1.76560769677162,2.74680218314265
12.8018969582627,1.10567544311285,-1.76067717835307,2.72020307421684,3.42374167788034
12.8118709583068,0.932493487000465,-1.74588153004646,3.35020313858986,3.89120900107833
12.821844958351,0.774372788965702,-1.69131969898939,3.31778675973415,3.80367250477053
12.8318189582787,0.611257837861776,-1.38113221764565,2.75030629456043,3.13772960289203
12.8417929583229,0.495761733949184,-1.06882270865142,1.84160454332829,2.18624540557199
12.8517669583671,0.476276180148125,-0.74234905064106,0.803452454209328,1.19308715479598
12.8617409582948,0.655879256129265,-0.412651311010122,-0.22716023504734,0.807502616395646
12.871714958339,0.872431911081076,-0.158782018125057,-1.43812970638275,1.68954615833158
12.8816889582668,1.04456780031323,-0.0473440280556679,-2.66190691888332,2.85991464754504
12.8916629583109,0.969819919019938,-0.0537075528502464,-3.71157743811607,3.83656646699797
12.9016369583551,0.788195314407349,-0.1584111584723,-4.60628504812718,4.67591786640679
12.9116108333692,0.589972657263279,-0.287388310432434,-5.35331830322743,5.39339194134464
12.9215848332969,0.315085401535034,-0.459648891538382,-5.87682010531426,5.90318307898195
12.9315588333411,0.0106884178519249,-0.556098275184631,-6.33416943311691,6.35854243843447
12.9415328332689,-0.210354460179806,-0.613338131010532,-6.58751700818539,6.61935140289445
12.951506833313,-0.367910755723715,-0.588114996850491,-6.65898694038391,6.69502387194408
12.9614808333572,-0.381286992430687,-0.572821019589901,-6.60787233531475,6.64360448031781
12.971454833285,-0.338078992366791,-0.519709590375423,-6.47193918943405,6.50156845193067
12.9814288333291,-0.135370351374149,-0.378219250738621,-6.13992375969887,6.15305117064495
12.9914028332569,0.0101333709061146,-0.201126530617476,-5.71880436480045,5.72234898703189
13.001376833301,0.176043144911528,0.0549727441370487,-5.20624211847782,5.20950767229311
13.0113508333452,0.785964601635933,0.305116922110319,-4.26699685156345,4.34949408810211
13.021324833273,1.4846564398706,0.561873277723789,-3.20089214801788,3.57290034396593
13.0312988333171,2.04718255922198,0.725524126142264,-2.13153405368328,3.04315282403113
13.0412728333613,2.39295444086194,0.80016719609499,-1.0167939645052,2.72036182593448
13.051246833289,2.52747972339392,0.807434554249048,-0.095796103477478,2.65504824909157
13.0612208333332,2.44239908114076,0.852084039151669,0.412935631871223,2.61951833690912
13.071194833261,2.17397869974375,0.917882756888866,0.515342012643814,2.41542326152772
13.0811688333051,1.72399598658085,1.10358594059944,0.313199674487114,2.07078683744476
13.0911428333493,1.05821052387357,1.3215141530335,-0.274920877218247,1.71516490700896
13.101116833277,0.339541819542646,1.55672468841076,-0.800023646950722,1.78289602568581
13.1110908333212,0.0798207794129849,1.73526137843728,-0.968325809240341,1.98875797450648
13.1210648333654,0.0804220193624497,1.67760753974319,-0.732678925395012,1.83239001479475
13.1310388332931,0.0790467542409897,1.58088362932205,-0.219478747844696,1.59800261563302
13.1410128333373,0.152014012187719,1.5048781581223,0.316708003878593,1.54533830937298
13.1509868332651,0.59966544046998,1.30985977515578,1.07141222119331,1.79534270232388
13.1609608333092,1.0988555431366,1.33373468756676,2.19281345844269,2.79191020361118
13.1709348333534,1.73970891684294,2.01883715808392,3.40225037455559,4.32175869263507
13.1809088332811,3.09914328664541,2.74591269671917,4.42389869749546,6.05934033826001
13.1908828333253,4.29365781605244,3.3487992221117,5.18349761903286,7.51788542330112
13.2008568333695,4.73036354899407,3.66587413877249,5.78360613226891,8.32256405203295
13.2108308332972,4.09569740653038,3.24819904625416,6.16404177010059,8.08213741738477
13.2208048333414,1.85306976377964,2.41507621183991,6.45751527786255,7.13904504974283
13.2307788332691,-0.944120675325394,1.46008556261659,6.51272293388844,6.74082885951978
13.2407528333133,-2.72123540014029,0.138334158807993,6.51502966046333,7.06186023078811
13.2507268333575,-3.79249354720116,-1.3817319957912,6.77088452160359,7.88270688397371
13.2607008332852,-4.48155107438564,-2.91795006036758,6.72819107651711,8.59460806257334
13.2706748333294,-4.46983208477497,-3.74867451310158,6.41174795150757,8.66847571750205
13.2806488332571,-3.49412621229887,-3.85547975420952,5.39151757836342,7.49280347536189
13.2906228333013,-2.19209775924683,-3.56343706011772,3.81412590622902,5.66135431642312
13.3005968333455,-1.24975171387196,-2.70176183313131,2.18281062662602,3.69134915457783
13.3105708332732,-0.895191613286734,-2.00795285850763,0.13267449259758,2.20246344520719
13.3205448333174,-1.5287190105021,-1.44311811223626,-1.9710934728384,2.88180172419981
13.3305188333616,-2.67314760625362,-1.03787244603038,-3.54478151857853,4.55942686677881
13.3404928332893,-3.76253767669201,-0.664807223528624,-4.58119639992714,5.96540181946599
13.3504668333335,-4.08698154687882,-0.348241306990385,-4.81549374639988,6.32563595174736
13.3604408332612,-3.1845380705595,-0.23807991027832,-4.08365565061569,5.18403397358914
13.3704148333054,-1.43501211717725,-0.199187886267901,-2.36519639253616,2.77364193178346
13.3803888333496,-0.419327223300934,-0.511545561701059,-0.969328022003174,1.17350372651215
13.3903628332773,-0.13241487622261,-1.02094680324197,0.265160704851151,1.06309749030472
13.4003368333215,0.101290439665318,-0.980123736262322,1.5979785490036,1.8773485916654
13.4103108333657,0.451179345846176,-0.917350660264492,2.40972001612186,2.61760302416242
13.4202848332934,0.774637083113194,-0.608086892813444,2.79829030036926,2.96652336665099
13.4302588333376,1.09398349687457,-0.346761230528355,2.80651908695698,3.03209376963927
13.4402328332653,1.22738465219736,-0.238966201990843,2.47711034595966,2.77482496676889
13.4502068333095,1.38982834294438,-0.0482633565366268,1.98141965568066,2.42073873566591
13.4601808333537,1.5663192383945,-0.040710654258728,1.1449824732542,1.94061798868149
13.4701548332814,1.59353963524103,-0.107195688933134,-0.0540224254131317,1.59805441310911
13.4801288333256,1.49168172329664,-0.212750795334578,-1.16484780371189,1.90453345214652
13.4901028333697,1.37331332087517,-0.34168087720871,-2.18680369019508,2.60477363288907
13.5000768332975,1.13641279399395,-0.387247790247202,-3.16674908638001,3.38669376612251
13.5100508333417,0.898009825050831,-0.328851208984852,-3.97577627599239,4.08917617134339
13.5200248332694,0.678481229692698,-0.292237552553415,-4.69621288597584,4.75396203566806
13.5299988333136,0.484008245766163,-0.285380084216595,-5.3480324202776,5.37746748412088
13.5399728333578,0.354895584583282,-0.27422695890069,-5.67448890209198,5.69218548546248
13.5499468332855,0.246767849475145,-0.31774851590395,-5.85382417559624,5.86763291027044
13.5599208333297,0.130516723841429,-0.352361108958721,-5.91758279979229,5.92950075121898
13.5698948332574,0.052214320152998,-0.340119670629501,-5.810743060112,5.82092283372816
13.5798688333016,0.0963394559919834,-0.224524602591991,-5.4246712911129,5.43017045815087
13.5898428333458,0.0924229909479618,-0.0127308502793312,-4.93203050851822,4.93291283328209
13.5998168332735,-0.0569909106194973,0.13902588441968,-4.42350927293301,4.42606037556609
13.6097908333177,-0.302103559523821,0.182165325880051,-3.86503176569939,3.8810979524479
13.6197638333542,-0.306347176283598,0.194535402953625,-3.11842828094959,3.1394724969086
13.629737833282,-0.024509335309267,0.151685837209225,-2.23116651535034,2.23645105467295
13.6397118333261,0.343682671487331,0.126901098042727,-1.47016601622105,1.5151269856406
13.6496858333703,0.620215918421745,0.106968378424644,-0.974160745739937,1.15978410835255
13.6596598332981,0.632910808324814,0.189262383878231,-0.777735815048218,1.02042605771038
13.6696338333422,0.35836912304163,0.385675181597471,-0.873768146038055,1.02011986897651
