Time (s),Linear Acceleration x (m/s^2),Linear Acceleration y (m/s^2),Linear Acceleration z (m/s^2),Absolute acceleration (m/s^2)
0.02827500004787,1.0542476465553,0.86499206006527,-0.20702710211277,1.37931489706034
0.0382489999756217,0.547885568439961,0.577881492376328,0.411183806061745,0.896212997954891
0.0482230000197887,-0.24706591129303,0.464844288825989,0.62825408577919,0.819649299197798
0.0581970000639558,-0.932151132524014,0.469269461631775,0.596045283079147,1.20182758371028
0.0681709999917075,-1.10881130486727,0.559274482727051,0.53302282333374,1.35143027457051
0.0781450000358746,-0.854795100688934,0.717074460983276,0.357727391123772,1.17168226628062
0.0881199999712408,-0.29983995616436,0.612669501900673,0.234557547569275,0.721307951566858
0.0980940000154078,0.435017934143543,0.639957872629166,-0.148802282810211,0.787990355991806
0.108068000059575,0.902539955377579,0.974685240983963,-0.485679087638855,1.41438108945738
0.118041999987327,1.52579934954643,1.38577139854431,-0.874268667697907,2.23892200119121
0.128016000031494,1.83227852672339,1.45202152132988,-1.0893409538269,2.57920042097958
0.137990000075661,1.50050955712795,1.09180613994598,-1.17198959290981,2.19479593223265
0.147964000003412,0.587727911174297,0.7679709649086,-0.96810829281807,1.36837025952009
0.157938000047579,-0.739014968276024,0.704430441856384,-0.643136419057846,1.20664403378484
0.167911375057884,-1.78666965991259,0.795064623355866,-0.277105396986008,1.97512116843573
0.177885374985635,-1.7558109793067,0.753721300363541,0.171500004529953,1.91843171502908
0.187859375029802,-0.942696293592453,0.677832627296448,0.509114143252373,1.26780542018093
0.197833375073969,-0.26923182874918,0.328365597724915,0.361149181723595,0.557439211789492
0.207807375001721,1.72240905225277,0.389434502720833,0.396629501581192,1.80988042055718
0.217781375045888,2.78401256918907,0.855374559760094,0.138236948847771,2.91573336862517
0.22775537497364,1.11619955420494,1.16623534798622,-0.90871987760067,1.8525059102865
0.237729375017807,1.01554295271635,1.09123662114143,-1.08101802706718,1.84139208941937
0.247703375061974,-0.0895123931765556,0.690509975552559,-1.10265155553818,1.30409238468774
0.257677374989726,-1.26894607633352,0.690155049562454,-1.15642313539982,1.85036553285202
0.267651375033893,-1.9832764390111,0.790423103570938,-0.836819590330124,2.2931247552097
0.277625374961644,-2.12165986061096,0.714725634455681,-0.518887764215469,2.29815530557191
0.287599375005811,-1.70327053070068,0.697061195969582,-0.481681931018829,1.90237806293858
0.297573375049979,-1.59949356257916,0.186229140758514,-0.635092989206314,1.73101243627503
0.30754737497773,-1.83182010501623,-0.0815756750106812,-0.883911895751953,2.03556373698957
0.317521375021897,-2.31729804843664,-0.339053138494492,-0.713017662763596,2.44810568877736
0.327496375073679,-2.82481882542372,-0.855438294410706,-0.0592036432027817,2.9520977530192
0.337470375001431,-2.02906233027577,-0.981295518279076,1.09518407642841,2.50588567089584
0.347444375045598,-1.1053263643384,-1.13278459668159,1.88835303246975,2.46390431823525
0.357418374973349,-0.499025503546,-1.51290156126022,2.08754077255726,2.62597107073591
0.367392375017516,0.0848197102546692,-1.85951690375805,2.10161151230335,2.80744874347789
0.377366375061683,-0.125989663302898,-1.30771457791328,2.57297018408775,2.88897323988137
0.387340374989435,-1.16918088287115,-1.66243474602699,2.01692044079304,2.86332696109927
0.397314375033602,-1.50523615390062,-1.98295104146004,1.64328160643578,2.98298594530499
0.407288375077769,-0.560403287708759,-1.75934123575687,0.858159588575363,2.03611672262991
0.417262375005521,-0.366626268625259,-1.67795676469803,-0.584644966721535,1.81432176367776
0.427236375049688,-1.03915430188179,-1.9254021602869,-1.145312256217,2.46956581329548
0.43721037497744,-1.44713851153851,-3.38121560096741,-1.04511436879635,3.82349223298124
0.447184375021607,-1.13080297529697,-4.64184576719999,-0.824927523136139,4.84829381471879
0.457158375065774,-1.22810795277357,-4.52152030169964,-0.474598029255867,4.70931399162566
0.467132374993525,-2.15195954740047,-3.52802252143621,0.00649567186832428,4.1325434055993
0.477106375037693,-2.6188187867403,-2.87803901284933,0.432662968039513,3.91516508479265
0.487080374965444,-2.17793989598751,-2.77432051688433,0.637182784080505,3.58417053462415
0.497054375009611,-1.48610581845045,-3.02162645637989,1.03896134376526,3.52394347562013
0.507028375053778,-1.70216949999332,-2.89749386876822,1.23603999316692,3.58059305017549
0.51700237498153,-2.02503696084023,-2.55023708671331,1.0164220815897,3.41139234611913
0.526976375025697,-1.83725216835737,-2.80131067961454,1.19398974180222,3.5564657396614
0.536950375069864,-2.28262844502926,-3.54117904901505,1.09922859549522,4.3541526363225
0.54692537500523,-2.33142813742161,-3.5140900683403,0.712807163000107,4.27697091643062
0.556899375049397,-2.49131147861481,-3.34462372541428,0.50848966062069,4.20139292176299
0.566873374977149,-2.13533591330051,-2.71964758872986,-0.59200895011425,3.50807882843736
0.576847375021316,-1.37804956555367,-1.71582099437714,-1.52797100543976,2.67913375614817
0.586821375065483,-0.775501009225845,-0.932192940115929,-2.03740908443928,2.3709536626151
0.596795374993235,-0.639747080504894,-0.324305291175842,-2.30305393874645,2.41215830609741
0.606769375037402,-0.831621415615082,-0.506477633714676,-1.60830590128899,1.88009617958333
0.616743374965154,-1.4676464509964,-1.17239129662514,-0.939092654585838,2.10009106264985
0.626717375009321,-1.72904505729675,-1.14550112128258,-1.64240452408791,2.64561188570175
0.636691375053488,-1.08930002331734,-0.116331524848938,-3.40286784052849,3.57485903282575
0.646665374981239,0.365011267662048,0.816136819124222,-3.92784606456757,4.02831071790513
0.656639375025407,1.69203422874212,0.694256286621094,-1.46413636744022,2.34279041427288
0.666613375069574,1.71041319698095,-0.430112120211124,1.15834453046322,2.11004070852038
0.676587374997325,0.982369067072868,-1.64219899445772,1.37592293322086,2.3569112073862
0.686561375041492,0.405412311851978,-2.05171839058399,0.117252461314201,2.09467315745105
0.696535374969244,0.0408240902423859,-1.58968485832214,-1.73875786721706,2.35627746157621
0.706509375013411,-0.764303883612156,-0.705636722445488,-3.1298303514719,3.29816943766735
0.716483375057578,-1.32446597367525,0.101404168009758,-3.59115929424763,3.82895782131044
0.72645737498533,-1.43016316741705,0.630942050814629,-2.98988484621048,3.3738503153699
0.736431375029497,-1.14782480478287,1.40235614866018,-1.86246916294098,2.5986334741679
0.746405375073664,-0.270739240944386,1.75885094672441,-0.830202296376228,1.96369352045804
0.75638037500903,0.717149597704411,1.7567246067524,-0.0937203419208527,1.89978114317063
0.766354375053197,1.279332485497,1.95378980755806,0.593231602907181,2.40954559103029
0.776328374980949,1.02285518825054,2.33668975442648,0.548989230394363,2.60916479350418
0.786302375025116,0.300581383109093,2.14089836955071,0.0250360232591629,2.16204111872954
0.796276375069283,0.564663276672363,1.69721223056316,0.0102817440032959,1.78870894386295
0.806250374997035,0.972706543207169,1.6044645729661,-0.338129863142967,1.90651419859659
0.816224375041202,1.09783052623272,1.81141025260091,-0.812934299111366,2.26876643624411
0.826198374968953,0.806462600827217,1.77566286116838,-0.860975607633591,2.13181601457671
0.836172375013121,0.578534041643143,1.24422302529216,-0.24508662879467,1.39386514039955
0.846146375057288,1.00554450631142,1.42936063706875,0.739603782892227,1.89768420466714
0.856120374985039,1.48501618981361,1.29417944312096,1.75357646584511,2.63727206343434
0.866094375029206,0.636416214108467,-0.466322903484106,1.21647228598595,1.44992671210164
0.876068375073373,1.41082262456417,-0.408943006843329,1.5713953524828,2.15103189530809
0.886042375001125,0.479709080457687,-0.242523136362433,1.76756242096424,1.8474888864482
0.896016375045292,-0.722191944122315,0.0251740175485611,1.04812977790833,1.27309503441529
0.905990374973044,-1.90814644217491,0.846534739136696,0.158178877830505,2.09348142259293
0.915964375017211,-3.05628582715988,0.979754192233086,-0.53643642783165,3.2540075868998
0.925938375061378,-4.05378456473351,0.201655557453632,-0.946676493287087,4.1677368731802
0.93591237498913,-5.27677123367787,-0.44615454107523,-1.62761165320873,5.54008016374792
0.945887375040911,-5.90056506335735,-1.06325886368752,-2.56543253839016,6.52139797797638
0.955861374968663,-5.54719618678093,-2.21497294396162,-1.85030461549759,6.25308866459213
0.96583537501283,-5.25743273735046,-2.522215475142,-0.501571819782257,5.8526698336067
0.975809375056997,-5.12024244010449,-2.9715892007947,-0.164244779348373,5.9223476233053
0.985783374984749,-4.8258491653204,-3.25523997098207,-0.447470456957817,5.83829060984061
0.995757375028916,-4.28511503398419,-3.17770793795586,-0.313776794672012,5.34401482691614
1.00573137507308,-3.54252332389355,-3.20231828391552,-0.195041479468346,4.77936764337529
1.01570537500083,-2.56092199623585,-4.12447623252869,-0.505500563979149,4.88110197431706
1.025679375045,-1.98677921354771,-4.52858081459999,-1.03642891466618,5.05267461181744
1.03565337497275,-1.0632372289896,-4.7291011351347,-1.56088381290436,5.09227151955084
1.04562737501692,0.387661626935005,-5.0932803440094,-1.73971096336842,5.39614496059313
1.05560137506109,2.39499848127365,-5.88989623367786,-1.21394921243191,6.47306481190787
1.06557537498884,4.41219023287296,-6.24529701769352,-0.806739758849144,7.689082294317
1.07554937503301,6.16527611732483,-6.08135453939438,-0.805167442560196,8.69722928565342
1.08552337507717,7.2557028990984,-5.86425443887711,-0.656233012676239,9.35229097338192
1.09549737500492,7.81643626213074,-5.65571115374565,-0.523142783045769,9.66216450211898
1.10547137504909,8.25051659524441,-5.69598560571671,-0.555697740912438,10.041119264713
1.11544537497684,8.82890094816685,-5.72644959926605,-0.0312007427215576,10.5234352970797
1.12541937502101,9.39028978407383,-5.28143731176853,0.479160026907921,10.7842809977489
1.13539337506518,9.80422762870789,-4.60288167625666,1.03270365357399,10.880067828706
1.14536837500054,9.88471806049347,-3.59899573266506,1.7790393358469,10.6688988362285
1.15534237504471,9.54023285865784,-2.50020538598299,2.76764796674252,10.2433854382878
1.16531662503257,9.20842968285084,-1.45369470208883,3.54072472035885,9.97221826156296
1.17529062507674,8.59862356245518,-0.430946810245514,3.64849416732788,9.35059099795814
1.18526462500449,7.55831443548203,0.444005981683731,3.99919700592756,8.56264183004328
1.19523862504866,6.4659218198061,1.57463968008757,5.38017865777016,8.55768411963636
1.20521262497641,4.07841888427734,3.43052867889404,10.1594775545597,11.472445763391
1.21518662502058,0.119825236201286,6.38476188182831,16.8376258206368,18.0079200811935
1.22516062506475,-1.76543169558048,8.69542421758175,17.1124274146557,19.2759519458139
1.2351346249925,-1.20660803318024,8.45637074589729,11.4786889278889,14.3082636487116
1.24510862503666,-0.0328005409240723,8.21972691178322,6.37047654926777,10.3994210341032
1.25508262496442,0.718694724440575,6.96061906814575,5.17134885907173,8.70112572837535
1.26505662500858,0.682847784161568,4.91302121043205,5.59014807879925,7.47354093140544
1.27503062505275,-0.113911947011948,3.73047446966171,5.16224649846554,6.37010240195474
1.2850046249805,-0.694767917990685,3.71770151942968,4.25439844071865,5.69244351222111
1.29497862502467,0.169511951208115,2.08894235014916,3.70281713962555,4.25479367459267
1.30495262506884,-0.287578344941139,1.40259032964706,2.26637844800949,2.6807521718541
1.31492662499659,-0.483402181863785,0.966363191306591,0.730028382539749,1.30402336108543
1.32490162504837,-1.38263962984085,-0.030949020087719,0.136790932416916,1.38973448796607
1.33487562497612,-2.22612153768539,-0.0330443698167801,0.236280210390687,2.23886966318847
1.34484962502029,-3.05574846804142,0.967772662639618,-0.423345356807113,3.23317242311947
1.35482362506446,-4.62070662081242,1.8147029659152,-0.490523944348097,4.98845569992357
1.36479762499221,-6.27149722158909,2.26902372837067,-0.216083854436874,6.67284334541559
1.37477162503637,-6.94793704211712,2.02524424463511,-0.47084704041481,7.25238859460235
1.38474562496413,-5.29697336375713,1.05535869061947,-0.868475246429443,5.47046232377843
1.39471962500829,-2.47683786571026,-0.905582846403122,-0.0555156581103802,2.63778090314779
1.40469362505246,-1.2143362981081,-1.87589787840843,0.369613026380539,2.26499873827566
1.41466762498021,-1.01215712249279,-1.58589878618717,0.350635449439287,1.91376127535446
1.42464162502438,-1.02400124251843,-1.58556315600872,1.18999609351158,2.23129553599348
1.43461562506855,-1.00021418452263,-1.70584915280342,1.31127904057503,2.37272047854183
1.4445896249963,-1.31994402945042,-0.866665825545788,0.900144643485546,1.81758693691567
1.45456362504046,-1.2149555182457,-0.488318520784378,0.663448476791382,1.46790182587717
1.46453762496822,-0.900129148364067,-0.720057125687599,0.650219736099243,1.3234426520258
1.47451162501238,-0.878227232694626,-1.06531123638153,0.251149606704712,1.4032986950593
1.48448562505655,-1.02207283079624,-1.36328914672136,0.0234774479269981,1.70403678351768
1.4944596249843,-0.922584210634232,-1.37471080541611,-0.117605048418045,1.65976575806732
1.50443462503608,-0.133632266521454,-0.980512283742428,-0.605864804685116,1.16031637184933
1.51440862496383,0.259088371396065,-1.00940132975578,-0.449688013494015,1.13500534720573
1.524382625008,-0.011716650724411,-1.26283339709044,-0.161707964837551,1.27319870193268
1.53435662505217,-0.59260185778141,-1.23993102282286,0.294088050127029,1.40538026328536
1.54433062497992,-1.10941035211086,-0.871699985861778,0.592709154188633,1.53034516896718
1.55430462502409,-1.52392824053764,-0.120844405889511,0.735404604971409,1.69640224762764
1.56427862506825,-1.39704833865166,0.572468140125275,0.74705547451973,1.68450459007916
1.57425262499601,-1.10668847322464,0.599855913519859,0.387005276978016,1.31695086398919
1.58422662504017,-0.321225562691689,0.877075038850308,0.345506710410118,0.995902290809335
1.59420062496793,0.409209201335907,0.6476984167099,0.15743160367012,0.782144564195538
1.60417462501209,0.968466727137566,0.559911244511604,-0.471306339204311,1.21390200126586
1.61414862505626,1.67090794622898,0.593904032707214,-0.0861177921295166,1.77540745716534
1.62412262498401,2.5872233569622,1.12172283411026,-0.0923111629486084,2.82143725185942
1.63409662502818,3.0756728553772,1.80579385578632,-0.559552664011717,3.61022909892189
1.64407062507235,2.04538000881672,2.22062866330147,-0.151391429901123,3.02286129450073
1.6540446250001,2.00196501731873,3.02270848363638,1.40041881993413,3.88661850183949
1.66401862504426,4.54774447917938,4.29582333236933,2.18554083779454,6.62666331606661
1.67399262497202,5.88676212608814,4.6661003100872,1.94020687177777,7.75827707279364
1.6839676250238,4.75299227356911,3.47263097047806,0.878770731389523,5.95166694364511
1.69394162506796,5.20433826506138,2.44682001471519,0.206591484546661,5.75454125044561
1.70391562499572,6.94561101973057,3.38582729995251,0.215950245559216,7.72994006775366
1.71388962503988,7.46986477375031,3.54872429609299,-0.554256402254105,8.28851760131063
1.72386362496763,7.08216572463512,2.55330892145634,-1.01651300579309,7.59669378680828
1.7338376250118,6.7396422636509,1.83210632622242,-0.475283907651901,7.0003775773487
1.74381162505597,6.39873204946518,1.45159292042255,0.587038524448872,6.58752670405675
1.75378562498372,5.76092419803143,1.29814034700394,1.64383796900511,6.12989553290481
1.76375962502789,4.75986567556858,1.77447850763798,2.58793700963259,5.70109754252206
1.77373362507205,3.25823286831379,2.23598286688328,3.20839617222548,5.09013819096368
1.78370762499981,1.27481931209564,2.06966846555471,3.55249691963196,4.30452392254918
1.79368162504397,-1.10881101250649,1.67480102241039,3.50305023282766,4.03804176053647
1.80365562497173,-3.33353565037251,0.914156033992767,2.75300829291344,4.41895868363125
1.81362962501589,-3.33293864965439,-0.221588130891323,2.02601578474045,3.90670210051002
1.82360362506006,-2.78123572647572,-1.73084102958441,0.776778187304735,3.36667004444899
1.83357762498781,-2.50114591062069,-3.93309891074896,-1.34763541951776,4.85191911844046
1.84355262503959,-2.68302940070629,-6.85037800312042,-2.88392043471336,7.90210874542029
1.85352662496734,-4.36311338245869,-8.2285585463047,-2.92561809897423,9.76243696006278
1.86350062501151,-4.97037070155144,-7.94391258001328,-1.72688626527786,9.52850818139647
1.87347462505568,-3.60494176626205,-5.61251660227776,0.935284363031387,6.73577794977797
1.88344862498343,-2.10987947523594,-2.67281373023987,2.79829030036926,4.40748831441688
1.8934226250276,-0.319332818984985,-0.266102691292763,2.75798661231995,2.78913503533447
1.90339662507176,-0.0455071252584457,0.0691202285885811,1.65335869789124,1.65542849085728
1.91337062499952,-0.199771876931191,-0.824741289317608,0.647134160399437,1.06718771482517
1.92334462504368,-0.216521226167679,-0.88953516304493,0.453390726260841,1.02162488141874
1.93331862497143,-1.16958872616291,0.00564168602228165,0.619358643516898,1.32347071984523
1.9432926250156,-1.57551471590996,0.554744644761086,0.824152182340622,1.86258290032867
1.95326662505977,-0.725489773750305,0.643351011872292,0.167487645149231,0.984016284200117
1.96324062498752,0.597826929688454,0.67083614140749,-0.788531675487757,1.19549168534404
1.97321462503169,1.63956862449646,0.781154389679432,-1.25984356954694,2.21033781913024
1.98318862507585,1.63168423891068,0.689726741015911,-0.693348944932222,1.90232730943457
1.99316262500361,0.589015175700188,0.510514259040356,-0.408437515050173,0.879991414497327
2.00313662504777,-0.902801910638809,0.0673111000657082,-1.10017482116818,1.42476900274311
2.01311162498314,-2.36321594059467,-0.133836041986942,-0.74354378297925,2.48103990802699
2.02308562502731,-3.33715507686138,0.0469420319795609,-0.145614380836487,3.34066028043776
2.03305962507147,-3.99697535634041,1.1263254699111,0.013040314167738,4.15266072695044
2.04303362499923,-4.15903386175633,0.986286993920803,-0.526957214176655,4.30673990428792
2.05300762504339,-3.92539023399353,0.782356869578362,-0.770118647217751,4.07600950579126
2.06298162497114,-3.58395903289318,0.620937757194042,-1.21671553015709,3.8354560001506
2.07295562501531,-3.58231187224388,-0.185634771287441,-1.23193554013968,3.79276730018988
2.08292962505948,-3.17097428441048,0.311190278828144,-1.61505212634802,3.57215770548431
2.09290362498723,-2.57813093662262,0.604343943893909,-2.74186174571514,3.81179702522419
2.1028776250314,-2.04649273395538,0.188735257387161,-3.48623978018761,4.04692739154976
2.11285162507556,-1.7334187746048,-0.313608394861221,-3.92331154882908,4.30063534639423
2.12282562500332,-1.61089680254459,-0.892166994810104,-3.4761147415638,3.93374174947899
2.13279962504748,-1.64486503243446,-1.4238613307476,-2.58924298524857,3.38188428258314
2.14277362497523,-2.12974305152893,-1.36573942244053,-1.35597515702248,2.87049094442154
2.1527476250194,-3.00053438007832,-0.330053688883781,0.172378548681736,3.02355029189583
2.16272162506357,-2.8124276983738,0.107133854627609,1.05143813252449,3.00445492026658
2.17269712500274,-2.10722425460815,-0.173438941240311,1.17456002891064,2.41869104828666
2.18267112504691,-1.80470685839653,0.239968268573284,1.20495210170746,2.18322265975662
2.19264512497466,-2.04609863162041,1.17311971351504,0.993818500041962,2.55937583867282
2.20261912501883,-2.76750237107277,1.90363092988729,0.60758827149868,3.41350898618705
2.21259312506299,-2.57678900063038,2.06006032079458,0.549966884851456,3.34457077268746
2.22256712499075,-0.685737478137016,1.38300405755639,0.980959595739842,1.82899366882809
2.23254112503491,2.20716778814793,1.03662918180227,2.60700331807137,3.56968570129598
2.24251512496267,6.44127872943878,0.869085257202387,3.28790280997753,7.28393339772304
2.25248912500683,7.2678773868084,0.955331541895866,2.04799546837807,7.61110934773106
2.262463125051,6.0034684574604,2.16607838049531,2.81930490106344,6.97724940039637
2.27243712497875,5.25981489300728,3.11838764280081,4.29324675679207,7.47140963367553
2.28241112502292,6.42350670218468,3.1328387439251,4.81751922190189,8.61885191901125
2.29238512506709,7.11447860777378,2.26799915000796,4.30537592858076,8.61950624405541
2.30235912499484,6.43542800545693,1.02125378206372,3.14625459551811,7.23578681835069
2.312333125039,5.79539645791054,-0.389197690486908,2.0454004740715,6.15806447237882
2.32230712496676,5.07090304970741,-1.04009775012732,1.97634778082371,5.54092154971704
2.33228212501854,4.30103992581368,-1.00146914318204,3.20406543195248,5.45599855025841
2.3422561250627,5.33315067172051,-0.399750452935696,4.86983426034451,7.23308939770001
2.35223012499046,7.45351420462132,0.785790646970272,4.29578444838524,8.63864022669923
2.36220412503462,7.44769914865494,0.49204553604126,1.19342607021332,7.55874309680376
2.37217812496237,3.51074312210083,-2.05930602997541,0.496384754776955,4.10029955237985
2.38215212500654,1.81152880489826,-2.99212345272303,-0.0036565563082695,3.49777825736786
2.39212612505071,2.89292982459068,-3.23226889193058,-0.809284174740315,4.41265747993582
2.40210012497846,2.93212429583073,-3.71751323908567,-1.3535418382287,4.9243611846425
2.41207412502263,0.69960531949997,-4.63463147252798,-1.12093258291483,4.81930973736485
2.42204812506679,-1.88359807670116,-5.04094191670418,-1.17084792405367,5.5072608421427
2.43202212499455,-4.25183560609818,-5.3476049888134,-1.92029227852821,7.09665467474931
2.44199612503871,-7.09880046844483,-4.9539721852541,-2.71182342946529,9.07131714888531
2.45197012496647,-8.75916763901711,-5.4381900537014,-3.22242744326592,10.8018964731058
2.46194412501063,-7.44412357628346,-5.02519711911678,-3.13440141230822,9.51273115978994
2.4719181250548,-6.32985184907913,-4.2423408973217,-3.65408790618181,8.45084842761264
2.48189212498255,-6.85547560572624,-3.82038388878107,-5.22466494083405,9.42814947815031
2.49186712503433,-7.60077633082867,-3.29025397539139,-6.38397367715836,10.4571837491992
2.50184112496208,-7.60778363406658,-3.03834042996168,-6.77652299165726,10.6316108021113
2.51181512500625,-6.14961142659187,-3.00109805166721,-6.70020337879658,9.57690114447399
2.52178912505042,-3.73197311103344,-2.41486381173134,-4.7493716776371,6.50505356342495
2.53176312497817,-2.26826008200645,-1.67132456034422,-2.68849596261978,3.89439855775659
2.54173712502234,-2.07046631813049,-0.966433065533638,-1.61964423716068,2.80072688772708
2.5517111250665,-1.47293993532658,-0.753100033700466,-1.34588754057884,2.13263334535613
2.56168512499426,-0.667255014181137,-0.846413994133473,-1.3097382992506,1.69618994099679
2.57165912503842,0.212964949607849,-0.909731153547764,-1.73658562660217,1.97197730210519
2.58163312496617,0.68774950504303,-1.11550987511873,-1.3978552544117,1.91607958484525
2.59160712501034,0.572862242460251,-0.968526661098003,-0.339282934069634,1.17529909020859
2.60158112505451,2.43794277191162,-0.236096242368221,1.32130175292492,2.78301001023334
2.61155512498226,3.80876517891884,1.01532485157251,3.91691644906998,5.55696060912441
2.62152912502643,3.50210970818996,2.21802723705769,4.93237081646919,6.44303492957202
2.63150412496179,2.53752319335938,3.19714963763952,3.57799575001001,5.42796862089171
2.64147812500596,1.71907964766026,3.62798038065434,1.36408378332853,4.24007087739726
2.65145212505013,1.34310192704201,3.15953362226486,-0.0728177154064179,3.43393038897458
2.66142612497788,0.780881617069244,2.07021108716726,-0.336442649066448,2.23802227455801
2.67140012502205,0.631944263577461,0.990419513583183,0.465931578576565,1.26387364917133
2.68137412506621,0.477711671590805,0.927261983156204,0.808666708767414,1.31983524443378
2.69134812499397,-0.0116061383485794,1.22769777059555,0.688993792533875,1.40786681348871
2.70132212503813,-0.981583786010742,1.62999644011259,0.669983909726143,2.01724405143028
2.71129612496588,-1.31267944872379,2.27638011038303,0.782336404323578,2.7417301091791
2.72127012501005,-1.12471485435963,2.68317265748978,0.430250991582871,2.94100576831736
2.73124412505422,-1.28185175836086,2.39014295339584,-0.190832653641701,2.71888660480289
2.74121812498197,-1.89823775053024,2.04049056708813,-0.927809282541275,2.93730120632589
2.75119212502614,-2.17873453259468,2.22478018641472,-1.37444797307253,3.40376824593968
2.7611661250703,-3.09826064944267,2.47660280764103,-0.750797107815743,4.03688949759649
2.77114112500567,-2.98306757748127,2.92563564062119,-0.42559573084116,4.19990092735568
2.78111512504984,-2.54991461277008,3.36071409344673,-0.0673701569437981,4.21912342653738
2.79108912497759,-2.18384967684746,3.27665276706219,0.568708380460739,3.9785778852461
2.80106312502176,-1.04336254298687,3.0017090857029,0.802038889825344,3.27751875846525
2.81103712506592,-0.258821153640747,2.91209758222103,0.310315827727318,2.93999942702164
2.82101112499367,-0.00787912309169769,2.86330198287964,-0.831915530562401,2.98171825894636
2.83098512503784,0.0820469605922699,2.80353700697422,-1.70800297468901,3.28387356863246
2.84095912496559,0.361287760734558,2.64465763270855,-1.94237691968679,3.30114691257934
2.85093312500976,0.818541778922081,1.9036511027813,-2.98413147836924,3.63303438535276
2.86090712505393,1.28727914392948,1.68215740442276,-0.853693777620793,2.28375440746123
2.87088112498168,1.44658448785543,2.31424784839153,2.28621512711048,3.56021479572758
2.88085512502585,1.61862535983324,2.47478666245937,2.81099279165268,4.0799751904767
2.89082912507001,2.4127681696415,2.03268687307835,1.25169152766466,3.39411223221149
2.90080312499777,4.83095992416143,2.73686529994011,0.715368828177452,5.59824597701799
2.91077712504193,4.06834647059441,3.40447290122509,0.122161783576012,5.30629835585415
2.92075112496968,3.79761629283428,3.26629091620445,0.603039137721062,5.04521575936089
2.93072612502147,5.427566832304,2.91488845825195,2.29726519525051,6.57514135365061
2.94070012506563,6.33734856426716,3.57262829840183,2.0408191806078,7.55583236390917
2.95067412499338,6.2198312240839,4.60023142576218,1.07300149440765,7.81023442885423
2.96064812503755,5.21921241223812,5.42827902317047,0.864340680241585,7.57980713270289
2.9706221249653,3.09652373403311,6.44626581966877,1.49652409493923,7.30632511047749
2.98059612500947,1.6739479136467,6.87615136027336,2.48946375846863,7.50206564565521
2.99057012505364,0.579074616730213,6.71595870137215,3.2994586622715,7.50505537316787
3.00054412498139,-0.73664626121521,6.36467669606209,5.24499570965767,8.28020151650221
3.01051812502556,-0.691825014352799,4.9097058391571,6.04102395415306,7.81522895967794
3.02049212506972,0.130741841644049,3.69007254838944,5.82665684223175,6.89809095320291
3.03046612499747,0.187067192941904,3.47011549830437,3.31623783230782,4.80355379554315
3.04044012504164,0.0981045842170715,1.58916504085064,2.67690912008286,3.11462878585699
3.05041412496939,2.10437563732266,-3.54183276772499,3.19368603944778,5.21273504947751
3.06038912502117,2.882644572258,-10.9302259469032,3.64249843239784,11.8763325067272
3.07036312506534,3.94244188427925,-20.1926084733009,3.90016300678253,20.9402854910438
3.08033712499309,4.53405030012131,-28.3747810578346,3.14106811523438,28.9059184443017
3.09031112503726,4.07657876551151,-32.5583469128609,2.21376286268234,32.8871584990526
3.10028512496501,0.230822638571262,-30.5457048797607,1.82868628978729,30.6012656476554
3.11025912500918,-3.85891382396221,-23.3216360020638,-0.0039245780557394,23.6387380609845
3.12023312505335,-4.95725773572922,-14.9447908973694,-1.97702664256096,15.869146592364
3.1302071249811,-4.37500515729189,-5.72725709974766,-2.46355708479881,7.61651216259798
3.14018112502527,-4.93283391594887,-0.852321728467941,-3.64973670065403,6.19514977666037
3.15015512506943,-4.86754361361265,1.36786839365959,-5.08140464901924,7.168313468304
3.16012912499718,-3.78097160875797,2.73280090034008,-6.45567457437515,7.96490309277942
3.17010325007141,-2.26989701002836,2.76702348411083,-7.54423667907715,8.35011128474882
3.18007724999916,-0.833264483213425,1.34906023979187,-6.75783704459667,6.94137268491581
3.19005125004333,0.778221133947373,0.126256003975868,-4.59222190976143,4.65940669832064
3.20002524997108,2.23737508893013,0.0804383915662766,-0.92313509143889,2.42167215379142
3.21000025002286,2.73121922850609,0.987307625412941,1.40400988742709,3.22576790630587
3.21997425006703,1.6010003900528,1.64071584820747,0.791322259157896,2.42514776072452
3.22994824999478,0.0918995189666748,1.53885208904743,-0.231998367458582,1.55895301919442
3.23992225003894,-0.919697440266609,1.39610050499439,-0.750673804655671,1.83260774926736
3.2498962499667,-1.67565296173096,1.72296336829662,-0.641239582300186,2.48748946099442
3.25987025001086,-2.01686957001686,2.67753360271454,-0.158833765983582,3.35591674827342
3.26984425005503,-2.08400320708752,3.69745173454285,0.340234787687659,4.25793123560936
3.27981824998278,-2.15936680018902,4.37208242654801,0.330424987077713,4.88744824978984
3.28979225002695,-2.35770493984222,4.36525931060314,-0.466034781932831,4.98311647968769
3.29976625007112,-2.75073898851872,3.75372884631157,-1.69297124505043,4.95209015175978
3.30974024999887,-3.10003995716572,2.81587580144405,-3.015022611022,5.16040362860853
3.31971425004303,-3.57464968085289,2.0212853872776,-3.9538264131546,5.70056648614878
3.32968824997079,-4.3209046715498,1.55517926931381,-4.47220956265926,6.41010593614999
3.33966225001495,-5.14089597523213,1.40236521184444,-4.86174054443836,7.21331828890041
3.34963725006674,-6.23082574367523,0.958967925310135,-4.6341482001543,7.82420209802974
3.35961124999449,-7.40300829470158,0.789070642590523,-4.21838836312294,8.55698338624948
3.36958525003865,-8.61650493264198,0.838922833800316,-3.64316092193127,9.39258059738655
3.37955924996641,-9.34764019310475,0.331508476138115,-2.95927350282669,9.81048289912535
3.38953325001057,-10.5222376441956,-0.308608440756798,-2.04890032500029,10.7243049542811
3.39950725005474,-11.0815589046478,-0.437626669406891,-1.35364504158497,11.1725028421372
3.40948124998249,-10.7129726493359,-0.0628172224760056,-1.78934096038342,10.8615592831492
3.41945525002666,-8.81929689645767,1.46351890146732,-0.632182829976082,8.96222854279763
3.42942925007083,-6.41149359762669,2.30114891588688,1.15731439724565,6.90955230818665
3.43940324999858,-4.73462149143219,2.31619964897633,2.51843788146973,5.84157092260903
3.44937725004274,-3.4001874768734,2.20086916744709,3.88814113140106,5.61451168204312
3.4593512499705,-1.75656965553761,1.94241463422775,5.80769666075707,6.37085960207776
3.46932525001466,1.10621835708618,1.30277777373791,8.84406336307526,9.00768592655128
3.47929925005883,7.75293374598026,0.918021043539047,9.89271354317665,12.6022428778885
3.4892742499942,14.542441649437,1.02541919231415,3.89526654839516,15.0899700175412
3.49924825003836,17.2592966079712,-0.0921199589967728,-0.0763366428762674,17.2597112598043
3.50922224996611,19.7229109954834,-1.04739770650864,2.24256390810013,19.877609337475
3.51919625001028,19.3643679177761,0.361436280012131,3.03994636774063,19.6048630435983
3.52917025005445,15.7658651053906,3.79273913025856,3.12968826413155,16.5149120876319
3.5391442499822,11.516095905304,6.17193609595299,4.08715930223465,13.690074186597
3.54911825002637,5.71444409608841,4.30223041892052,4.04682520866394,8.21832417067389
3.55909225007053,1.01670508682728,2.53446217596531,2.87503266692162,3.96522390172935
3.56906624999829,-3.02467987239361,1.61843971073628,1.07996318936348,3.59643655833539
3.57904025004245,-6.22179647326469,-0.886053146123886,-1.8294499361515,6.54543570752702
3.58901424997021,-6.76837314248085,-3.72943308055401,-4.67761113882065,9.03324925285501
3.59898825001437,-5.57396064698696,-4.54532197773457,-6.25093431830406,9.52906968319508
3.60896225005854,-4.38893293261528,-4.35834790170193,-5.54687108159065,8.30817112937927
3.61893724999391,-2.78547554254532,-4.90192261040211,-1.05424830436707,5.73577882800151
3.62891125003807,1.74950563430786,-6.40764262139797,8.94041612148285,11.1377598444796
3.63888524996582,10.4162416577339,-6.16072932243347,8.34218164086342,14.6984581023236
3.64885925000999,9.96820343613625,-4.19689049005508,-3.03469439864159,11.2333583412468
3.65883325005416,0.840246058702469,-3.72429805576801,-1.19092346191406,3.99933846273353
3.66880724998191,-4.24844714462757,-2.95713693022728,9.53581587195397,10.8501495984441
3.67878125002608,-8.12082710623741,-2.99149166107178,5.05453786253929,10.022235691277
3.68875525007024,-10.1277926623821,-2.68971101403236,-4.38729337334633,11.3602408731073
3.698729249998,-10.2011997771263,-2.1156746506691,-7.15647389531136,12.6394491468022
3.70870325004216,-9.16554795742035,-2.24590442240238,-5.24991906523705,10.7987502159221
3.71867724996991,-7.7722851061821,-2.52881785869598,-2.70299354910851,8.6086880336531
3.72865125001408,-6.45667035520077,-2.99810369253159,-1.35474139451981,7.24655380666737
3.73862525005825,-5.29931575834751,-4.01932049095631,-0.688324797973037,6.6866640220065
3.748599249986,-4.49543938100338,-5.37067283928394,-0.244855517596006,7.00807079012445
3.75857425003778,-3.49776054918766,-6.35537786900997,-0.0514439494907856,7.25450227081738
3.76854824996553,-2.67835045874119,-6.51141783535481,-0.199846282750368,7.04358303302694
3.7785222500097,-2.64203106343746,-5.71685607254505,-0.464881857186556,6.31497320940516
3.78849625005387,-2.73048774182797,-4.4637410402298,-0.724706246852875,5.28258899846772
3.79847024998162,-2.75522672653198,-3.13528989672661,-0.764321132898331,4.24328927193364
3.80844425002579,-2.78888096094131,-1.8470184803009,-0.597938611507416,3.39806781333237
3.81841825006995,-2.28817043602467,-0.941996966600418,-0.700490441769362,2.57172492471336
3.82839224999771,-1.35979689717293,-0.431257882118225,-0.966655552089214,1.72321035246285
3.83836625004187,-0.678878694176674,-0.0334957748651505,-1.00915472343564,1.2167134026439
3.84834024996962,-0.369103149175644,0.434641081094742,-0.837827650308609,1.01346197547231
3.85831425001379,-0.205636634230614,0.914326772689819,-0.590931454449892,1.10791689961537
3.86828825005796,-0.139256703257561,1.42886771678925,-0.372148379087448,1.48308792643663
3.87826224998571,-0.273022871017456,1.91693363785744,-0.262225256413221,1.95395448901681
3.88823725003749,-0.338581852912903,2.34184144377708,-0.298798567056656,2.38498209691163
3.89821124996524,-0.0188444066047668,2.58185444355011,-0.518256264925003,2.63342306427846
3.90818525000941,0.563340636491776,2.66566317021847,-0.84377792313695,2.8522051106741
3.91815925005358,1.04237027049065,2.64069906771183,-1.0727803234756,3.03491103155484
3.92813324998133,1.18423220068216,2.57058627426624,-1.03968172073364,3.01517126860253
3.9381072500255,0.957741764187813,2.51582359135151,-0.610083278417587,2.76022449019552
3.94808125006966,0.864671047925949,2.52775308072567,-0.0792239248752594,2.67272671414646
3.95805524999741,0.906472207903862,2.51237431883812,0.357172490358353,2.69467786006569
3.96802925004158,1.00074540406466,2.4181604719162,0.600631985217333,2.6850978033138
3.97800324996933,1.16637772768736,2.38155046999455,0.800709671527147,2.77008224117146
3.9879772500135,1.44094747960567,2.27916630864143,0.971831945925951,2.86624947144354
3.99795125005767,1.93504889667034,2.0604015058279,1.13929371714592,3.04756604057257
4.00792524998542,2.52694616496563,1.89955161988735,1.27813599899411,3.40989514636093
4.0179002500372,3.09619512051344,1.87404138743877,1.33036332920194,3.85594630847085
4.02787424996495,3.42775885283947,1.93019921600819,0.657878419160843,3.9884838950528
4.03784825000912,3.47641324192286,1.95003238677979,-0.185636233091354,3.99030527016956
4.04782225005329,3.50215707063675,1.81740408718586,-0.47672700047493,3.97433395633944
4.05779624998104,3.6270050650835,1.41860994637013,-0.309968941658735,3.9068786347767
4.06777025002521,3.87194609820843,0.849249601364136,0.0698695492744446,3.96460253074182
4.07774425006937,4.17296777665615,0.333395957350731,0.558886227607727,4.22340700676574
4.08771824999712,4.22578479856253,0.352673642635345,1.26645209267735,4.42555496689609
4.09769225004129,4.07675944447517,0.85661124587059,2.63300588607788,4.92813051681774
4.10766624996904,4.06207036167383,1.09270368754864,4.99162182211876,6.52768759876142
4.11764025001321,4.54357015192509,1.20289739012718,4.7029822075367,6.64898740418766
4.12761425005738,4.70515064746142,2.07396880030632,1.22887554600835,5.28676879648883
4.13758824998513,4.66035922139883,2.99802124679089,-0.464281786680222,5.56081262461969
4.14756325003691,4.84496692925692,3.46128035545349,-1.05614265605807,6.04728067436818
4.15753724996466,5.36106527924538,3.48367402195931,-1.84746506139636,6.65508322808098
4.16751066665165,6.21883135020733,2.97992879211903,-2.56561321735382,7.35773131810901
4.17748466669582,7.25901183843613,2.05605760931969,-3.13537994384766,8.17014278673753
4.18745866673999,8.32706424951553,1.06563575685024,-3.60208832502365,9.13513102714511
4.19743266666774,9.11278853058815,0.773215917348862,-3.2878764975071,9.71858577782386
4.2074066667119,9.15682157278061,1.40964908838272,-2.28138576552272,9.541447106139
4.21738066663966,8.76410795152187,1.83749219655991,-1.24074612468481,9.04021109843503
4.22735466668382,8.06642812013626,1.94923891961575,0.24727319508791,8.30228516831835
4.23732866672799,7.63478081345558,1.96891012251377,4.0665665781498,8.87149642814399
4.24730266665574,7.37791496872902,2.62459875941277,10.1790364909172,12.8426995533311
4.25727666669991,6.63426023483276,3.71195926129818,7.15513488292694,10.439732066193
4.26725166663528,5.73407436847687,4.21034727215767,1.64726005196571,7.30206126338249
4.27722566667944,4.81223041534424,3.54721045196056,-0.734950568675995,6.02332266272193
4.28719966672361,4.95089479565621,1.60638450622559,-2.03068303227425,5.58708367908195
4.29717366665136,5.35088059902191,-0.519337999820709,-2.15891364097595,5.79331884607078
4.30714766669553,5.52524807810783,-2.60076141536236,-0.944535827636719,6.17935872028492
4.3171216667397,5.83324373066425,-5.18606571614742,3.32063259959221,8.48225270167118
4.32709566666745,5.16454562366009,-8.29915022671223,7.91941625475884,12.5803648516465
4.33706966671161,4.16560730159283,-9.70197912275791,3.45798486471176,11.1102809331758
4.34704366663937,4.58910592854023,-10.9569173169136,-0.770180627703667,11.90407949034
4.35701766668353,4.00099941015244,-12.9366535592079,-0.768103696703911,13.5630005854124
4.3669916667277,2.12324737966061,-15.3608904576302,1.82033178806305,15.6134154785294
4.37696566665545,-0.790411993861198,-17.2933344197273,5.1033550965786,18.0479472437821
4.38694066670723,-3.11574440896511,-15.6263213038445,3.43654546380043,16.3002952561525
4.39691466663498,-3.98966926038265,-11.2267604720593,-0.10520891468972,11.9150610749574
4.40688866667915,-4.87548325538635,-7.69107137382031,-2.35091749191284,9.40477160299668
4.41686266672332,-5.18185747504234,-4.66576994240284,-4.82414996445179,8.47900223650178
4.42683666665107,-4.68902022600174,-1.69464237928391,-5.42849069237709,7.37070109763943
4.43681066669524,-3.57048178553581,0.941533867120743,-2.59130880653858,4.51106501112794
4.4467846667394,-2.49893624782562,2.96211641907692,0.374135226421058,3.8934294931989
4.45675866666716,-2.18343452453613,4.0658935636282,1.0395191681385,4.73069518090279
4.46673266671132,-2.02562168240547,4.7379660987854,-0.306287680864334,5.16190644015563
4.47670666663908,-1.65018658339977,5.15233312904835,-1.23261703312397,5.54878339666175
4.48668066668324,-2.36079051554203,4.83890950620175,-1.20337050296366,5.5169264663294
4.49665466672741,-3.49671448230743,3.99712913811207,-1.88617435991764,5.63575258803417
4.50662866665516,-4.68829692542553,2.78991884171963,-2.16080755412579,5.867952325156
4.51660366670694,-5.35130803048611,1.69189535737038,-2.51120487570763,6.14858987615976
4.52657766663469,-5.73927955985069,1.13133507192135,-3.12830539762974,6.63366743000571
4.53655166667886,-6.73178302109242,0.847983094453812,-3.70783755898476,7.73201379560109
4.54652566672303,-8.40015912294388,0.810757380723953,-4.10707433402538,9.38552398145067
4.55649966665078,-9.95853097200394,1.00360498487949,-4.15842575132847,10.838453156025
4.56647366669495,-10.8533748221397,1.16246974110603,-4.32752313494682,11.7419988678395
4.57644766673911,-11.8014540624619,1.19327053427696,-4.35561549782753,12.6360436419508
4.58642166666687,-12.6306009364128,1.04354673027992,-4.00746058344841,13.2921333923898
4.59639566671103,-13.4374909687042,0.852231681346893,-3.79489441394806,13.989055936185
4.60636966663878,-14.1854387283325,0.453923444151878,-3.52292053341866,14.6233952108671
4.61634366668295,-14.4282396805286,-0.236170209646225,-3.03297999501228,14.7454686021452
4.62631766672712,-13.9242506217957,-0.639774854779244,-2.28293089225888,14.1246536489294
4.63629266666248,-12.1800659537315,-0.802342067956925,-1.69303556442261,12.323316471375
4.64626666670665,-9.28018262028694,-1.1774158090353,-1.33588646292686,9.44948094315626
4.6562406666344,-6.5914656329155,-1.28597170650959,-1.15553201973438,6.81442563012325
4.66621466667857,-4.53701133012772,-1.41273466408253,0.594665340185166,4.78893703316563
4.67618866672274,-1.88817059934139,-3.22243270576,11.1783969819546,11.7858313173717
4.68616266665049,8.6728931415081,-7.22124876558781,39.7214082813263,41.2935319999433
4.69613666669466,28.9496746230125,-0.875349233150482,18.2617046678066,34.2394473441448
4.70611066673882,34.3081589412689,2.76829466879368,-18.4240397465229,39.0404721525508
4.71608466666658,39.3734287834168,0.441033257246018,-15.5064744329453,42.3191700513653
4.72605866671074,34.3385551071167,4.95441657364369,-0.866551512479782,34.7049495310607
4.73603266663849,17.8523843693733,11.6123948693275,5.28775405883789,21.9434656620094
4.74600666668266,6.83376781761646,8.82203807115555,4.46176935911179,12.018158100471
4.75598066672683,1.20292370259762,4.86310937762261,1.75887755155563,5.30947346677224
4.76595566666219,-4.03959571123123,3.72872264385223,-2.00901558995247,5.85302056255112
4.77592966670636,-8.99726509094238,1.70487734556198,-1.69059961438179,9.31211645847757
4.78590366663411,-13.7782526636124,-2.92267227172852,6.85101418018341,15.6626515943931
4.79587766667828,-17.1374289393425,-8.8560840690136,14.9931122875214,24.4318462616863
4.80585166672245,-11.1997147607803,-10.6420003151894,6.29505974650383,16.68273234945
4.8158256666502,-2.3265474665165,-10.6330119752884,-5.91124734163284,12.386145966948
4.82579966669437,4.14876556634903,-13.2668692159653,-4.53795156240463,14.6224169992782
4.83577366673853,7.78479463934898,-14.98510627985,-3.22032712340355,17.1908971428767
4.84574766666628,6.0440282535553,-13.1162098574638,2.83373027443886,14.7171758779692
4.85572166671045,-0.0810505950450897,-5.93455258905888,5.43078280091286,8.04480487407578
4.8656956666382,-6.20169666945934,-2.67048712313175,-3.548885679245,7.62804907031581
4.87566966668237,-8.4024436300993,-1.53816913425922,-4.70665192008019,9.752927536867
4.88564366672654,-8.86924965977669,-1.1589421159029,-3.33423088431358,9.54588036512992
4.8956186666619,-7.92531024813652,-1.86284513890743,-2.05685180738568,8.39710509034599
4.90559266670607,-6.47014701783657,-3.04710686802864,-0.937438623458147,7.21293656358892
4.91556666663382,-5.73591916501522,-4.75097264528275,-0.343780319988728,7.45591675464697
4.92554066667799,-5.3033269482851,-6.71936119616032,-0.212142977267504,8.56271547160572
4.93551466672216,-4.75868570744991,-8.19339689970017,-0.240906600505114,9.47812631317347
4.94548866664991,-4.62496573269367,-8.64568019986153,-0.337670856714249,9.81081626340757
4.95546266669408,-4.80328066706657,-7.7133071655035,-0.472313522100449,9.09888414362894
4.96543666673824,-4.85452683448792,-5.84697182357311,-0.612923855781555,7.62424986116059
4.97541066666599,-4.2911598855257,-4.17987743139267,-0.739486984759569,6.03591496835729
4.98538466671016,-3.68043107450008,-2.76698957026005,-0.867288407832384,4.68550886867522
4.99535866663791,-3.16219527482986,-1.6145308470726,-0.882348350286484,3.65851437383517
5.00533266668208,-2.59442595720291,-0.753881514072418,-0.900369468927384,2.84781469994888
5.01530766673386,-1.99904608726501,0.0197021931409836,-1.07442814193666,2.26957468870482
5.02528166666161,-1.43604751288891,0.810893036127091,-1.16023727416992,2.01641526171746
5.03525566670578,-0.989751176834107,1.53936138153076,-1.07911424674094,2.12455369725316
5.04522966663353,-0.505997577309609,2.08687535941601,-0.974655931815505,2.3581850010981
5.0552036666777,0.136108562350273,2.47475976526737,-0.885854267701507,2.63205228294125
5.06517766672187,0.858274778723717,2.733010815382,-0.840350212231279,2.98532614499411
5.07515166664962,1.67919578969479,2.97035514593124,-0.771516789570451,3.49827762615805
5.08512566669378,2.45795954525471,3.06893043100834,-0.520389256104827,3.96619516594268
5.09509966673795,3.30200132399797,3.13319250047207,-0.0647719101235271,4.55239534630285
5.1050736666657,3.93745216280222,3.26465486526489,0.447488656416535,5.13436919409533
5.11504766670987,4.28130089521408,3.50551980435848,0.792834495306015,5.58988309278983
5.12502166663762,4.12659292459488,3.94204544305801,0.809547007083893,5.764014035126
5.13499566668179,3.37191443502903,4.23621652364731,0.600068167448044,5.44751495619462
5.14497066673357,2.94227798581123,4.37379916906357,0.64389414511621,5.31052903082221
5.15494466666132,2.77657403379679,4.33792006909847,1.11090080738068,5.26887222229586
5.16491866670549,2.85720245987177,4.02871989011765,1.74553069710732,5.238422211341
5.17489262507297,3.24711760371923,3.64022561967373,1.65815575361252,5.15213507176885
5.18486662500072,3.58639556765556,3.40905536413193,0.817516908198595,5.015199451528
5.19484062504489,3.75309822410345,3.43269507229328,0.0523876900970936,5.08644140919649
5.20481462497264,3.71764509379864,3.4938347285986,-0.106785141304135,5.10285892619128
5.21478862501681,3.47334988564253,3.60337471246719,0.256514061614871,5.01141379356636
5.22476262506098,3.57700815528631,3.57685934364796,1.13079902842641,5.18339816625316
5.23473662498873,4.40941192835569,3.32311181902885,2.42014735579491,6.02852377779634
5.24471062503289,5.05568917930126,3.14774446606636,2.16568003892899,6.33707016943719
5.25468462507706,4.98628623783588,3.15361916363239,1.05485056757927,5.99341922401423
5.26465862500481,4.90767568588257,3.3964674782753,0.600256447792053,5.99846478458452
5.2746336250566,4.75343636959791,3.99340270757675,0.283753754273057,6.21473560964274
5.28460762498435,4.6834317496419,4.57918612718582,-0.0260763160139322,6.55012660299186
5.29458162502851,4.98899466812611,4.85760831713677,-0.384765501022339,6.97384190042217
5.30455562507268,5.53788858890534,4.77566192865372,-0.735455841198564,7.34956135931074
5.31452962500043,6.47362435698509,4.28443968057633,-1.09591556310654,7.83997873806471
5.3245036250446,7.82559767961502,3.62266350746155,-1.46476143479347,8.74695352636264
5.33447762497235,9.31760480046272,2.92105844020844,-1.62572592616081,9.89915786396552
5.34445162501652,10.5921563100815,2.21474051713943,-0.882592763900757,10.8571552831461
5.35442562506069,11.717125518322,1.93310995995998,1.90302311182022,12.0270296205477
5.36439962498844,10.0136398100853,2.55539813160896,4.14617408037186,11.1352503951147
5.3743736250326,5.86503913521767,2.94366026759148,3.37657174229622,7.38004448221722
5.38434762507677,4.24986918747425,2.10310606062412,0.968548003435135,4.83968268049003
5.39432262501214,4.47560211718082,0.0583809399604797,-1.35639264822006,4.67698873866611
5.4042966250563,4.55818117439747,-2.210309497118,-2.35679862141609,5.5872160718546
5.41427062498406,3.85529205858707,-3.90287143707275,-2.0083320504427,5.84200992263436
5.42424462502822,3.36431773245335,-5.57718421697617,-1.56866645693779,6.69957700516308
5.43421862507239,3.21081487298012,-7.58466491281986,-1.26869026064873,8.33342960405714
5.44419262500014,3.38370125234127,-9.99172210693359,-1.26184784889221,10.6243213816712
5.45416662504431,3.83594771504402,-12.9447975611687,-1.56520139694214,13.5916199985572
5.46414062497206,3.8126775509119,-15.6616197752953,-1.95103576898575,16.2366679052387
5.47411462501623,2.69684695601463,-17.1469178009033,-1.81669365048409,17.452511263277
5.48408862506039,0.187930680513382,-16.2371366536617,0.11716650724411,16.2386468845401
5.49406262498815,-2.26302565455437,-12.9269366562366,3.29128133118153,13.5299486040602
5.50403662503231,-3.94608060657978,-9.15194499492645,2.48703482508659,10.2720490441283
5.51401062507648,-4.89177125930786,-6.26208261966705,0.500799987316132,7.96202897609789
5.52398562501185,-5.22833582282066,-4.40278147816658,0.0350721933413297,6.83529152848818
5.53395962505601,-5.18627153813839,-3.34345486700535,0.153144425153732,6.17248378936403
5.54393362498377,-4.90991750836372,-3.02417642712593,-0.407914627790451,5.78094519476584
5.55390762502793,-4.35353155016899,-2.60174784064293,-1.03572081685066,5.17639318397132
5.5638816250721,-3.75340315639973,-1.5622239947319,-0.733532034158707,4.13118001415147
5.57385562499985,-2.91161752581596,-0.251868814229965,0.286467958688736,2.93649764303934
5.58382962504402,-2.13546981453896,0.866418195962906,0.847951519489288,2.45559231113531
5.59380362497177,-1.54713116168976,1.45821255326271,0.388511812090874,2.16123578308767
5.60377762501594,-1.31759169459343,1.80257087051868,-0.0336156793311238,2.23303372809301
5.6137516250601,-1.93851103305817,1.92757381618023,-0.421599451303482,2.76606434116259
5.62372562498786,-3.15062948226929,1.71824291110039,-0.839932063221932,3.68568999061498
5.63369962503202,-4.76472763538361,1.13507319688797,-1.11344025313854,5.02302396958157
5.64367362507619,-6.27672989487648,0.422746090292931,-1.2905243486166,6.42195496126112
5.65364862501156,-7.4418683052063,-0.0226983064413071,-1.45527198851109,7.5828580130248
5.66362262505572,-8.45810619950295,-0.0695958995819092,-1.62962660372257,8.613947233346
5.67359662498348,-9.31086296081543,0.15154930472374,-1.76222742140293,9.47737209101718
5.68357062502764,-10.0267340648174,0.475361675620079,-1.57599535703659,10.1609608844154
5.69354462507181,-10.6213409328461,0.834116422533989,-1.25949492931366,10.7282319556887
5.70351862499956,-11.2450540709496,1.19041358470917,-0.861694230437279,11.3406720483404
5.71349262504373,-11.4965217661858,1.25367870390415,-0.45192311167717,11.5735023874311
5.72346662497148,-11.4551035988331,1.01085611701012,0.0262914113234729,11.4996486810513
5.73344062501565,-11.3689963316917,0.530336612462998,0.616540943384171,11.3980462030739
5.74341462505981,-10.6666404819489,-0.199808714389801,1.43251754879951,10.7642579503241
5.75338862498757,-8.93611900269985,-0.96507475733757,2.4696276640892,9.32119374956332
5.76336262503173,-5.78145669579506,-1.37733854413033,4.10630074739456,7.22384999972686
5.7733376249671,-2.19541546940804,-1.4688679343462,6.20800289154053,6.74660818435769
5.78331162501127,1.98954962432385,-1.8232349306345,8.47014795541763,8.88965127024668
5.79328562505543,6.91750579297543,-1.50453185677528,8.79415620803833,11.2894944933455
5.80325962498318,10.4908416044712,0.335547147989273,2.83131069660187,10.8713692660732
5.81323362502735,12.5615687084198,1.94959618449211,-6.21437869548798,14.149644386693
5.82320762507152,15.8521594834328,2.45252397358418,-11.4295103359222,19.6961808645267
5.83318162499927,18.7980837929249,3.79274322330952,-10.9066043651104,22.0614340925705
5.84315562504344,19.0761025249958,7.0948185145855,-2.08469259381294,20.4592297144774
5.85312962497119,14.5866115164757,10.2377928221226,2.29657230019569,17.9681908307796
5.86310362501536,8.13443416178227,10.3427281236649,1.49458457350731,13.2429161146548
5.87307762505952,2.91144444823265,7.20448245942593,0.806840842589736,7.81230237693034
5.88305162498727,-0.770782306194305,3.81097191810608,-1.42691109225154,4.14170105021184
5.89302662503906,-3.12561333954334,0.900308657884598,-1.70931889057159,3.67447758156968
5.90300062496681,-2.81907598257065,-4.29520732820034,0.629627012014389,5.17614002534618
5.91297462501098,-3.68665543556213,-10.8125308513641,8.24506055831909,14.0884092545117
5.92294862505514,-6.90627153754234,-15.9662678968906,19.6041961455345,26.2095937324129
5.93292262498289,0.366064935922623,-13.0944090986252,0.28640378549695,13.102655467798
5.94289662502706,5.14940542817116,-11.7384421277046,-7.08147516846657,14.6442715903099
5.95287062507123,6.72428981423378,-10.375914580822,-3.33840696573258,12.807054226604
5.96284462499898,3.86464526474476,-6.27363028585911,1.00303495444357,7.43639691690797
5.97281862504315,-1.28248559653759,-2.26477923452854,5.3632369351387,5.9614012370343
5.9827926249709,-5.94256385922432,-1.1295996183157,3.11347861289978,6.80322053086936
5.99276662501507,-7.27419764220715,-1.63291449308395,-0.881002101972699,7.5070983597723
6.00274062505923,-7.44402241945267,-1.80826313495636,-1.07328917741776,7.73532384615656
6.01271462498698,-7.13645185947418,-2.62599098145962,-0.852510154992342,7.65189828354147
6.02268962503877,-6.19786265015602,-3.88793940246105,-0.719659076482058,7.35169935550763
6.03266362496652,-5.30223468840122,-5.45472773373127,-0.660578663349152,7.63571290126171
6.04263762501068,-4.75897163629532,-7.12135610282421,-0.673711436614394,8.59158954315906
6.05261162505485,-4.78011282920837,-8.41406146287918,-0.74613044500351,9.70580339807232
6.0625856249826,-5.15936206698418,-8.87176513195038,-0.880110182315111,10.3005741309764
6.07255962502677,-5.99705464661121,-8.0995455801487,-1.14025514557958,10.1423609103782
6.08253362507094,-6.9661704146862,-6.23738281130791,-1.55493368625641,9.47893946335262
6.09250762499869,-7.35809817016125,-4.15973845124245,-2.16579332873225,8.72557696701234
6.10248162504286,-7.11327758967877,-2.71347643733025,-2.53967847704887,8.02568621430952
6.11245562497061,-6.09974520206452,-1.67544655501843,-2.32525406241417,6.7394969503373
6.12242962501477,-4.87854368805885,-0.826975802779198,-2.05676629185677,5.35857864307312
6.13240362505894,-3.88409193456173,-0.173748843669891,-1.90286041304469,4.32865297388653
6.14237862499431,-3.22575333952904,0.312603258490563,-1.60432277798653,3.61622136776333
6.15235262503848,-2.7993597561121,0.775221512317658,-1.49443956255913,3.26660879865373
6.16232662496623,-2.42790894985199,1.16558747649193,-1.42168952867389,3.04541247617908
6.17230049998034,-1.86146811962128,1.51815820813179,-1.40379251718521,2.78217564804767
6.18227450002451,-0.965201057195664,1.9496569955349,-1.57881488442421,2.68801635417815
6.19224850006867,0.191243712902069,2.35011642336845,-1.8122532749176,2.97386672424308
6.20222249999642,1.3941603988409,2.7240768545866,-1.91736048460007,3.61117005350018
6.21219650004059,2.56807606458664,3.07662244319916,-1.82932012796402,4.40534135590806
6.22217049996834,3.80269343018532,3.36710276126862,-1.58425513386726,5.32050022630411
6.23214450001251,5.04041508257389,3.62658581972122,-1.22466540455818,6.32911638900432
6.24211850005668,6.04207294464111,3.72475530803204,-0.56856804728508,7.12065426751436
6.25209249998443,6.67252324461937,3.69918075621128,0.469253089427948,7.64373620548533
6.2620665000286,7.2214423084259,3.61592400670052,1.9507808303833,8.30841027419492
6.27204149996396,7.28557340025902,3.39798249185085,2.24399764537811,8.34633992945106
6.28201550000813,6.33466644644737,3.29606493830681,1.49089848875999,7.29484896136092
6.2919895000523,5.59932294487953,3.3533150267601,1.23489686250687,6.64244754369794
6.30196349998005,5.13039846897125,3.34131770968437,1.15589980959892,6.23068991824371
6.31193750002421,4.57753136515617,3.15384603559971,1.09254055023193,5.66517281900187
6.32191150006838,3.95810540556908,2.79443640053272,1.12429560899735,4.97388317259545
6.33188549999613,3.29736506670713,2.27101178169251,1.31793697267771,4.21510008892762
6.3418595000403,2.54168436437845,1.61005597293377,1.73265644386411,3.47196457305794
6.35183349996805,1.66583022415638,0.912465019226074,2.341822732687,3.01524732954922
6.36180750001222,0.639329296946526,0.411412432193756,3.58117868185043,3.66098933222124
6.37178150005639,-0.0912519398331642,-0.0340658783912659,5.1652806186676,5.16619891895164
6.38175649999175,0.660262621343136,-0.138677244186401,4.42367007136345,4.47482234367743
6.39173050003592,2.30135327607393,0.468637962341309,1.77189564630389,2.94201676107298
6.40170449996367,3.02743215680122,1.23511320948601,0.53913901090622,3.31383780190912
6.41167850000784,2.96601358830929,1.74014658093452,0.280978738814592,3.45026024827683
6.42165250005201,3.05378935843706,1.82102643728256,-0.052778137922287,3.55591792127265
6.43162649997976,3.35930257558823,1.58976321101189,-0.513725842237473,3.75182290392592
6.44160050002392,3.7573406714201,1.26731967329979,-1.35300711035728,4.18978953124351
6.45157450006809,4.38395315140486,0.619939929842949,-2.56025599837303,5.11451674428106
6.46154849999584,5.06739939808846,-0.275747673511505,-3.55872186541557,6.19831225049054
6.47152250004001,5.58272386908531,-0.910757632255554,-4.08731366872788,6.9787117929985
6.48149649996776,5.28905798792839,-1.02028709113598,-4.14469824314118,6.79659059195898
6.49147050001193,4.30257014214993,-0.704508209824562,-3.73426346540451,5.74048475957259
6.50144550006371,3.93387249737978,-0.363719033002853,-2.88719721436501,4.8932149058923
6.51141949999146,4.39495293349028,-0.037499948143959,-1.99958520054817,4.82859798574668
6.52139350003563,4.85928646802902,0.29947099685669,-1.35209026694298,5.05277111556523
6.53136749996338,5.08376283109188,0.590565857291222,-0.929627766609192,5.20169398744681
6.54134150000755,5.28321194171906,0.805518275499344,-0.756082332953811,5.39748539669087
6.55131550005171,5.33071589112282,1.20760264456272,-0.606261392086744,5.49930804143205
6.56128949997947,5.03268447875977,1.87758655428886,-0.194141519889236,5.37502886144258
6.57126350002363,4.94619188010693,2.6401745724678,2.51264562964439,6.14399901921479
6.5812375000678,8.17113771915436,4.25347808897495,17.3821805226803,19.6723096560069
6.59121149999555,5.64264379620552,3.8724109518528,7.36164801478386,10.051311212198
6.60118550003972,2.91904378205538,2.33380269169807,-0.387615433931351,3.75735243621824
6.61115949996747,2.87243357956409,0.963359768986702,-1.26292958378792,3.28236619637667
6.62113450001925,3.34216438651085,-0.799134285449982,-1.64767871260643,3.81097409235742
6.63110850006342,3.65461678683758,-2.89360050022602,-1.1825069797039,4.80910287585863
6.64108249999117,3.21043188035488,-5.0014585930109,0.367400439977646,5.95453138368565
6.65105650003534,2.07468274533749,-6.99081993699074,2.56525068998337,7.73022528699445
6.66103049996309,1.15079811394215,-8.08204661786556,2.14458562374115,8.44056048671901
6.67100450000726,0.748369343876839,-8.56242578923702,0.265225024223328,8.59915905100727
6.68097850005142,-0.0251459509134293,-8.89886522233486,-0.739511396884918,8.92957511140653
6.69095249997918,-1.37111067473888,-8.99395965993404,-1.11526166081429,9.16597312995113
6.70092650002334,-2.94923675715923,-8.72391185224056,-0.702610788345337,9.2357077354874
6.71090050006751,-3.87940480649471,-7.51853290379047,0.393134036064148,8.46951433367619
6.72087449999526,-3.93247413575649,-5.58150881767273,-0.046797605752945,6.82786815382784
6.73084850003943,-3.74386459350586,-3.45423446059227,-1.8219731014967,5.40997632026495
6.7408234999748,-3.26852396786213,-1.55353327810764,-2.69404438555241,4.5116061137918
6.75079750001896,-2.33848865032196,-0.0245764321088791,-2.07965346336365,3.12955135704469
6.76077150006313,-1.59717163324356,1.53500462114811,-0.429373909235001,2.25644817510079
6.77074549999088,-1.24031781613827,2.96983123540878,0.409094595909119,3.24432492827733
6.78071950003505,-0.791029459834099,3.89093317687511,-0.0406931126117706,3.97073601774872
6.7906934999628,-0.599209796190262,4.41432680547237,0.0301447355747223,4.45491214620953
6.80066750000697,-1.24503710389137,4.45589466154575,-0.47153350353241,4.65053313823391
6.81064150005113,-2.29760901153088,3.79463596701622,-1.11507571935654,4.57402045818987
6.82061549997889,-3.61544921278954,2.35608701527119,-1.62552361249924,4.61139307027524
6.83058950002305,-4.64130811572075,0.970983368754387,-1.89128950417042,5.10504904149197
6.84056350006722,-5.23448417007923,0.238652352690697,-2.31859642267227,5.7299798292388
6.85053749999497,-5.66607475876808,-0.221139357089996,-2.70930854201317,6.28439802710081
6.86051250004675,-6.12383573055267,-0.566776460409164,-3.02583060443401,6.85406816843815
6.8704864999745,-6.71488924562931,-0.929262900352478,-3.19223359107971,7.49290480515116
6.88046050001867,-7.41372097849846,-1.21467368245125,-3.30558771371841,8.20765502655624
6.89043450006284,-8.01331376731396,-1.37220527350903,-3.28448511242867,8.76835145850319
6.90040849999059,-8.77973872840405,-1.33603907525539,-3.12691083669663,9.41522086465835
6.91038250003476,-9.5971519947052,-1.08781775414944,-2.7029666519165,10.0296910519262
6.92035649996251,-10.1161531949043,-0.728603416085243,-2.08999601840973,10.3554575832105
6.93033050000668,-10.1914232325554,-0.273533332943916,-1.46374518871307,10.2996348462837
6.94030450005084,-9.83280881881714,-0.0362913286685944,-0.88255300283432,9.87240326013664
6.95027849997859,-9.19972376346588,0.0361644440889359,-0.382110901661217,9.20772686021167
6.96025250002276,-8.36624410271645,-0.0822171145677567,0.16454532623291,8.36826596162853
6.97022750007454,-7.37081820309162,-0.389373106956482,0.739247102737427,7.41802255849586
6.9802015000023,-6.34684853553772,-0.727902919650078,1.54959283947945,6.57370268278528
6.99017550004646,-5.01086325466633,-1.02958767235279,3.38182605028153,6.13233632202188
7.00014949997421,-3.01284920096397,-1.5769390976429,6.72656905889511,7.53728920298997
7.01012350001838,-0.0772364562749863,-2.50957759559155,12.407169470787,12.6586649949868
7.02009750006255,6.10789797484875,-2.6157197624445,17.5862074184418,18.7995504975853
7.0300714999903,16.5943091440201,1.07243139088154,10.0021769285202,19.405276302204
7.04004550003447,21.9508194422722,4.57946737825871,-4.40297735989094,22.8516127502521
7.05001949996222,23.3789784765244,4.37446341276169,-12.2845790863037,26.7698234600647
7.05999350000639,25.4314377093315,4.55389633476734,-7.71484322905541,26.9632120089636
7.06996750005055,22.3161441206932,6.66158193469048,0.784352524280548,23.3024069823375
7.07994249998592,13.9264152610302,6.15491660535336,2.19731698393822,15.3836355381104
7.08991650003009,6.47748878180981,2.26034470617771,1.07165429592133,6.94373545285131
7.09989050007425,1.5817443394661,0.511014488339424,-0.735735338106752,1.81778916557033
7.109864500002,-1.71836804151535,-1.89625086665154,-0.374339915513992,2.58624949448521
7.11983850004617,-3.44122732937336,-5.20597256183624,1.51504748940468,6.42180385422736
7.12981249997392,-4.50926687657833,-7.31932119011879,2.19962429523468,8.87379836870971
7.13978650001809,-4.89852537810803,-8.65457323014736,2.78359040021896,10.3269339201983
7.14976050006226,-1.96062695682049,-8.75269418656826,0.163543186560273,8.97109023258975
7.15973449999001,1.17309237778187,-7.11639590978623,0.476048760004342,7.22812969540072
7.16970850003418,1.97771193623543,-2.1387600427866,8.3405432510376,8.83460812632781
7.17968279169872,-1.5144212526083,0.256286385655403,12.2589823150635,12.35482908999
7.18965679174289,-5.99787968873978,-1.53118229627609,1.69694852113724,6.41862245878478
7.19963179167826,-8.08645132541657,-2.87544489562511,-5.04311825037003,9.95449245684194
7.20960579172242,-7.50933640301228,-2.88653414011002,-4.09303458452225,9.02635832801475
7.21957979165018,-6.73262969791889,-3.25423454225063,-3.51927771806717,8.26460287988241
7.22955379169434,-6.0682661318779,-4.00314416885376,-2.69888295650482,7.7545461696244
7.23952779173851,-5.24661304950714,-4.67799705505371,-1.95931542634964,7.29722699922933
7.24950179166626,-4.65896612226963,-5.38141300499439,-1.34773759961128,7.24444393284846
7.25947579171043,-4.35981145977974,-5.96668947100639,-1.00818978667259,7.45826962868709
7.26944979163818,-4.39385804235935,-6.37052332699299,-0.939041710719466,7.79559845622122
7.27942379168235,-4.47080681562424,-6.50316799879074,-0.899690022468567,7.94284267373197
7.28939779172652,-4.69061710059643,-6.19228089809418,-0.881071464568377,7.8180891802912
7.29937179165427,-5.01663679540157,-5.07755776584148,-1.04949912272394,7.21454683337994
7.30934679170605,-4.9644556581974,-3.57235523343086,-1.62811729118228,6.32916327881307
7.3193207916338,-4.25928437411785,-2.4645247989893,-1.95823486089706,5.29623164475179
7.32929479167797,-3.41592291891575,-1.68349173903465,-2.12302810907364,4.36003694655087
7.33926879172213,-2.61091510534287,-1.1602460449934,-2.24974896669388,3.63653942442132
7.34924279164989,-1.93329707086086,-0.880410583019257,-2.1470917403698,3.02039124956614
7.35921679169405,-1.32280039429665,-0.639026995897293,-1.96431947350502,2.4528977513602
7.36919079173822,-0.733848368525505,-0.282094241380692,-1.80484134435654,1.96864493175037
7.37916479166597,-0.223851880431175,0.258483184576035,-1.602454007864,1.63853046001609
7.38913879171014,0.065002326965332,0.81277759373188,-1.3367085814476,1.56576580340074
7.39911279163789,0.258036457300186,1.37629657030106,-1.0932661896944,1.77651513482081
7.40908679168206,0.480341749191284,1.91784054100513,-0.883851084709168,2.16564846562885
7.41906179173384,0.897884986996651,2.34506501376629,-0.672598784565926,2.59959929482684
7.42903579166159,1.58011764407158,2.64770286262035,-0.479569916725159,3.12043098351207
7.43900979170576,2.35629517614841,2.89862969040871,-0.337997131347656,3.75078966353199
7.44898379163351,2.76301697194576,3.17417388081551,-0.247265886068344,4.21554065705988
7.45895779167768,2.6908091211319,3.54752678632736,-0.344149498566985,4.46585253937484
7.46893179172184,2.30064430117607,3.86600883543491,-0.315160209350288,4.50980204374344
7.4789057916496,1.80705743908882,3.94199574172497,-0.129771898202598,4.33838999647417
7.48887979169376,1.482304251194,3.83017534375191,0.12213320530951,4.10881802673616
7.49885379173793,1.26463229298592,3.5717354285717,0.306784694194794,3.80140837805796
7.50882779166568,1.07628675252199,3.10515685558319,0.477476686611772,3.32089991684293
7.51880179170985,0.914009853601456,2.54028307914734,0.67775200881064,2.7834870073578
7.5287757916376,0.797750249505043,1.92927418649197,0.894019465819001,2.27107356827402
7.53875079168938,0.849929632544518,1.3162328016758,1.04769372180104,1.88481068099316
7.54872479173355,0.932183292210102,0.780724911689758,1.18934018209577,1.70089010425607
7.5586987916613,1.24730319231749,0.229129577279091,1.46048127293587,1.93423658463639
7.56867279170547,1.63853220552206,-0.248256404399872,2.81430465459824,3.26599597668948
7.57864679163322,2.08985539287329,-0.325843108892441,4.4943067753315,4.96713827928364
7.58862079167739,3.38806093633175,0.500550895929337,2.2425744330883,4.0937327948529
7.59859479172155,3.75484010964632,1.36856830537319,0.0449500317871571,3.996726655757
7.6085687916493,3.81879286140203,1.72291366696358,-0.20210550069809,4.19433630691644
7.61854279169347,4.22525007069111,2.01394713163376,-0.228230714052916,4.68623627954547
7.62851679173764,4.54883849322796,2.09596719503403,-0.383564482927322,5.02315954680861
7.63849179167301,4.64298568189144,2.26112589418888,-0.605191424712539,5.19964066183097
7.64846579171717,4.65052361994982,2.69169438958168,-0.941780619621277,5.45523045912003
7.65843979164492,4.86438465535641,3.22152463316917,-1.41117404222488,6.00265534699703
7.66841379168909,5.41876326441765,3.5085463231802,-2.03408611178398,6.76833797382016
7.67838779173326,6.1282702589035,3.38256513834,-2.62270893931389,7.47502812447092
7.68836179166101,6.76694876074791,2.99360542953014,-3.15985755801201,8.04599085167425
7.69833579170518,7.26615070402622,2.54110695183277,-3.60857873439789,8.50152992564411
7.70830979163293,7.45633957922459,2.09785818457603,-3.77556819677353,8.61701364115153
7.7182837916771,7.25462291836739,1.67178502857685,-3.41955579400063,8.1925442139642
7.72825779172126,6.87623556017876,1.29240130484104,-2.43466833114624,7.40813920593479
7.73823179164901,6.75244064927101,0.936319320201874,-1.03158683538437,6.89465880158323
7.7482067917008,7.01552442312241,0.762641812562943,0.615110787525773,7.08361254916069
7.75818079162855,9.2958590054512,1.2861196410656,8.7096370446682,12.8033150328428
7.76815479167271,10.4134876191616,2.41850253403187,10.0056712245941,14.6425180743007
7.77812879171688,6.43118117272854,3.87834587574005,1.6697063434124,7.69347628069129
7.78810279164463,4.06117310643196,4.77719506859779,-0.521937671899796,6.29183110526574
7.7980767916888,2.62052178829908,4.90625364303589,-0.910612036585808,5.63628188914715
7.80805079173297,2.01497214853764,3.95344868302345,-0.981849249601364,4.54465589430322
7.81802479166072,2.91435636162758,1.39264012277126,-0.830691123604775,3.33511128104405
7.82799879170489,4.09758254885674,-1.74993306577206,-0.117643073592335,4.45716147027925
7.83797279163264,4.66573485910893,-5.10580040216446,1.6006285071373,7.09931624454831
7.8479467916768,4.6617663538456,-8.59322833657265,3.24766636490822,10.3016006329152
7.85792079172097,4.28786790311337,-11.0943853569031,1.89080944776535,12.043519334886
7.86789579165634,4.27541567265987,-13.1081757831574,-0.859270559549332,13.8145502073244
7.87786979170051,4.0399126303196,-15.2263495337963,-2.06219484686852,15.88758199892
7.88784379162826,2.21509193480015,-16.715847029686,-0.93466280400753,16.8878586196318
7.89781779167242,-1.81518331468105,-16.6190358495712,5.06243978977203,17.4675567742114
7.90779179171659,-3.57865970134735,-13.319946731329,6.89322698414326,15.4189611984209
7.91776579164434,-3.78894136369228,-9.02420379817486,2.42809021353722,10.0840444730062
7.92773979168851,-4.98634529471397,-6.66896287500858,-0.599118579626083,8.34851174155083
7.93771379173268,-5.45124747097492,-5.03658457159996,-3.19226399660111,8.0792222744943
7.94768779166043,-4.69164971888065,-3.34088267683983,-5.28864517450333,7.81938884612338
7.9576617917046,-3.42579418838024,-1.50885704219341,-3.87058428168297,5.38462051369711
7.96763679163996,-2.12507521927357,0.991521129012108,-0.213167263269424,2.35467601146693
7.97761079168413,-0.964775964617729,3.58218381822109,2.77543411910534,4.63312725045656
7.9875847917283,-0.480063421726227,5.06208954155445,3.36680455327034,6.09840834279866
7.99755879165605,-0.222165543437004,5.72463111519814,0.0911575073003769,5.72966566432305
8.00753279170021,0.0706676942110062,6.2294668507576,-0.758514263033867,6.27587404708848
8.01750679174438,-0.562144880890846,6.11262310981751,-0.83505490064621,6.19495640314604
8.02748079167213,-1.97852937698364,5.19946811914444,-1.0796380841732,5.66698029027664
8.0374547917163,-3.71229430675507,3.2027392834425,-0.861372048854828,4.97801463881136
8.04742879164405,-4.65874568223953,1.4279397636652,-1.09966421306133,4.99521617969929
8.05740279168822,-5.4930240726471,0.727722240686417,-1.66256104588509,5.78506718660766
8.06737679173239,-6.54380790174008,0.51190560400486,-2.32516284584999,6.96346547790744
8.07735179166775,-7.73004014253616,0.613403912186623,-2.80742189705372,8.24690261084506
8.08732579171192,-8.93198034346104,0.787173805832863,-3.19750427126884,9.51966118206663
8.09729979163967,-9.65479501605034,1.12938970327377,-3.60418279767036,10.3672909452197
8.10727379168384,-10.4191301822662,1.60447714447975,-3.7474290561676,11.188201159846
8.11724779172801,-11.2555451452732,2.05746620357037,-3.49888496875763,11.9650599547481
8.12722179165576,-12.0324003696442,2.40675781667233,-2.95320058465004,12.6211146709276
8.13719579169992,-13.1327200555801,2.48201615989208,-1.91748795390129,13.5020554112905
8.14716979174409,-13.8532969987392,2.01129600405693,-0.933758239746094,14.02964909759
8.15714379167184,-13.5574290561676,1.04976115107536,-0.435382508039475,13.6049784643575
8.16711779171601,-11.4205839765072,0.196706766486168,-0.222371950149536,11.424442270879
8.17709204170387,-9.31429878473282,-0.438472176790237,0.311676474809647,9.32982110900548
8.18706704163924,-7.09303803741932,-1.66056129813194,2.21176896214485,7.61318424622958
8.19704104168341,-3.94993684530258,-3.79781042039394,8.43977751731873,10.062564763169
8.20701504172757,1.7363412129879,-6.47979375422001,20.6403625202179,21.7031604350879
8.21698904165532,12.9949970769882,-5.52529251694679,24.5617976975441,28.3316203660123
8.22696304169949,21.1381406664848,1.26853823304176,0.715767023563385,21.18826331998
8.23693704174366,22.3451346158981,3.35241455554962,-18.6164166498184,29.2765211942011
8.24691104167141,26.9147921204567,2.67767861366272,-16.3683575284481,31.6148560936875
8.25688504171558,29.0770620632172,5.87263700723648,0.684515994787216,29.6720738370958
8.26685904164333,22.414246366024,10.2463075375557,4.51163675308228,25.0547425551083
8.2768330416875,12.7896756076813,7.3526140666008,3.45231540441513,15.1510797441521
8.28680704173166,5.35106887936592,0.843304737210274,3.59081372380257,6.49915719386511
8.29678204166703,3.70754168987274,-5.51872024655342,3.43971114635468,7.48556953826626
8.3067560417112,1.08565369963646,-10.721541159153,5.06398345470429,11.9068894851873
8.31673004163895,-4.55160422623158,-14.5677881598473,8.89535279989243,17.6653574641723
8.32670404168312,-4.47095767378807,-13.8992958748341,3.33224049210548,14.9761048017905
8.33667804172728,-3.14582307100296,-9.61768215358257,4.2097040784359,10.9598184852394
8.34665204165503,-4.9568256264925,-4.72808079600334,7.22721234083176,9.95778421760882
8.3566260416992,-8.09173486948013,-2.66511879444122,3.03099895834923,9.04245464859839
8.36660004174337,-9.88127755880356,-1.75735727548599,-1.42370813369751,10.1368089474832
8.37657404167112,-10.2417537260056,0.0046444433927536,-2.99039472341538,10.6693955572391
8.38654804171529,-10.268642731905,0.814734656810761,-4.09598392009735,11.0853913052364
8.39652304165065,-9.83727492213249,0.367402778863907,-4.56334952831268,10.8503973020846
8.40649704169482,-8.36506764292717,-1.41536708056927,-4.56494464874268,9.63412374269662
8.41647104173899,-6.60351323604584,-4.12767582893372,-4.13209632396698,8.81579916048101
8.42644504166674,-4.64659809172154,-7.23173808574677,-3.3211845767498,9.21516014834638
8.43641904171091,-2.99086717844009,-9.87868841171265,-2.78997789859772,10.6919478061502
8.44639304163866,-1.90774532318115,-11.4966971826553,-2.61806391119957,11.9443625602591
8.45636704168282,-1.52972926318645,-11.7398267483711,-2.59964869022369,12.1211293621098
8.46634104172699,-2.51308650970459,-9.94653248548508,-2.42763997793198,10.542416618239
8.47631504165474,-3.81588884174824,-6.75987304508686,-2.12445482969284,8.04799351153291
8.48628904169891,-4.29833617329598,-4.00853062391281,-1.99439053416252,6.20657757739872
8.49626304174308,-4.15772642433643,-2.11490632653236,-1.81885828971863,5.00677174112324
8.50623804167844,-3.61512761592865,-0.886550159454346,-1.61600785374641,4.05790589442986
8.51621204172261,-2.95420455157757,-0.228751262426376,-1.32599882125855,3.24621695926232
8.52618604165036,-2.1946605938673,-0.139032170176506,-1.07428554296494,2.44743835355284
8.53616004169453,-1.61388589918613,-0.263062139153481,-0.792212351560593,1.81698370785569
8.5461340417387,-1.17348238706589,-0.22493127644062,-0.535617781095207,1.30940497910326
8.55610804166645,-0.877705076336861,0.0353294616937637,-0.253266189135611,0.914198082720775
8.56608204171062,-0.698508381843567,0.444305359125137,0.128215479031205,0.837711418518476
8.57605604163837,-0.581500334143639,0.957173414826393,0.491660789251328,1.22313282857865
8.58603004168253,-0.443299638032913,1.54535419285297,0.784302165135741,1.78878842703238
8.5960040417267,-0.170140526890755,2.09794530808926,0.871415080279112,2.27808835578479
8.60597904166207,0.183024281859398,2.60178467810154,0.740804874077439,2.71137847974254
8.61595304170623,0.625426957011223,3.01214519619942,0.49169002532959,3.1154352252217
8.62592704163399,1.04470447897911,3.30764417946339,0.273104878216982,3.47944014761613
8.63590104167815,1.36827068209648,3.35868335545063,0.142168105021119,3.62948072205256
8.64587504172232,1.53750693708658,3.11873350560665,0.216910577639937,3.48388812381727
8.65584904165007,1.43510464936495,2.80722952365875,0.362747225761414,3.17358606357664
8.66582304169424,1.28765102684498,2.6136065787077,0.393221890479326,2.94000135550159
8.67579704173841,1.25496246010065,2.3595544141531,0.419272332563996,2.7052203419435
8.68577104166616,1.3311782848835,2.08535683751106,0.356511754989624,2.49956984246196
8.69574504171033,1.52809408932924,1.95548491537571,0.056463053226471,2.4823740404066
8.70572004164569,1.85789313197136,1.86073195517063,-0.210942982435226,2.63791342554265
8.71569404168986,2.24299484789372,1.70756940364838,-0.308410293236375,2.83583075392873
8.72566804173403,2.6918218588829,1.48155931591988,-0.375967780351639,3.0955249471473
8.73564204166178,3.21630833208561,1.19054046928883,-0.430486195832491,3.4564930581241
8.74561604170594,3.66581069648266,1.02296920895577,-0.362380020618439,3.82308165545306
8.7555900416337,3.99336470067501,1.0846772146225,-0.188488504886627,4.1423440476369
8.76556404167786,4.21881696403027,1.52287106394768,0.0585950942337513,4.48564223255343
8.77553804172203,4.554820779562,2.06192119717598,0.355329447984695,5.01240165727952
8.78551204164978,5.06021083116531,2.41661973059177,0.646323005408049,5.6447779411991
8.79548604169395,5.5281459581852,2.63076815664768,1.01400864332914,6.20560652618074
8.80546004173812,5.96227540791035,2.70805548369885,2.05040101289749,6.86195576029567
8.81543504167348,6.18595713436604,2.72396868109703,3.25273151546717,7.50108881133432
8.82540904171765,5.61791241288185,2.72868913829327,2.30701338082552,6.65800233039608
8.8353830416454,5.15558125734329,2.79976262927055,0.875132886171341,5.93165629902711
8.84535704168957,5.23398774147034,2.71982534408569,0.15131190776825,5.90042141491818
8.85533104173373,5.62395258665085,2.44558859109879,-0.437570463046432,6.14826920067266
8.86530504166149,6.26417299926281,2.21580587983131,-1.08908718466759,6.7331842361245
8.87527904170565,7.16789467692375,2.10853929340839,-1.73966813251376,7.67144688195147
8.88525304163341,7.93880328297615,1.90187881171703,-2.17800596952438,8.44899109855934
8.89522704167757,8.42923966526985,1.37272801458836,-2.42154016256332,8.87695444933123
8.90520104172174,8.80530626356602,0.663601089119911,-2.39816767215729,9.15013622764472
8.91517604165711,8.85131975769997,0.353389341831207,-2.10271020412445,9.10451183109225
8.92515004170127,7.79190836191177,1.2651322299242,-1.46878314971924,8.02942833709367
8.93512404162902,5.72781083106995,2.69276033699513,-0.380502880811691,6.34062753923634
8.94509804167319,4.12177774250507,3.90998749852181,3.95988880634308,6.92515511420562
8.95507204171736,3.71345819503069,4.80193522274494,10.4154546225071,12.0552913130784
8.96504604164511,3.23669435709715,3.14959510982037,3.90891979694367,5.97292170516298
8.97502004168928,3.35741772562265,0.689496068358421,0.234893214292824,3.43552520507822
8.98499404173344,3.87904227912426,-2.03651036739349,-0.620325261354446,4.42483298098461
8.9949680416612,4.25584387242794,-4.9413568174839,-1.0776359975338,6.60987999946729
9.00494204170536,3.94688576817513,-7.46265398740769,-1.09845559358597,8.5132670869576
9.01491604163311,2.92783360898495,-9.186309081316,-0.850864675417543,9.67907303801578
9.0248910416849,1.71684484183788,-10.4058184111118,-0.478772319965065,10.5573593265714
9.03486504172906,0.280769847035408,-11.3588946819305,0.928547274246812,11.4002421089513
9.04483904165682,-1.89611053347588,-12.2217706346512,3.95627054929733,12.9853374719496
9.05481304170098,-3.28023769497871,-12.222279342413,4.11728649616242,13.3077466068082
9.06478704162873,-3.7356551027298,-11.0010708117485,1.97657640695572,11.7849706127843
9.0747610416729,-3.85214859545231,-8.71974921941757,0.320580614805222,9.53812597849113
9.08473504171707,-4.32114265322685,-6.54363716304302,-1.31541302204132,7.95121201890945
9.09470904164482,-4.791849360466,-4.84643545746803,-2.58326946973801,7.28855528140401
9.10468304168899,-4.64372827827931,-3.13814275324345,-2.60920304059982,6.18224010932126
9.11465704173315,-4.01410535931587,-1.23930566310883,-0.987730379104614,4.31561486512735
9.12463204166852,-3.08466762721539,0.72547690987587,0.6266168653965,3.23019191583921
9.13460604171269,-2.42339431464672,2.21400610685349,0.791364505290985,3.37652496298799
9.14458004164044,-1.98693358004093,3.14147917449474,0.363055958747864,3.7347832714176
9.15455404168461,-2.21844648241997,3.85038916826248,-0.149788141641766,4.4462836200372
9.16452804172877,-3.0010208684206,4.24758409559727,-0.348650758266449,5.21245184659835
9.17450141673908,-4.08183950543404,4.15983434557915,-0.138038728237152,5.82963894433225
9.18447541666683,-5.0867320472002,3.13346556544304,0.0647637605667114,5.97475051483437
9.194449416711,-5.68083546996117,2.17733470916748,-0.202287933826447,6.08716670386857
9.20442341663875,-6.0747588801384,1.7276124894619,-0.575337953567505,6.34179423557563
9.21439741668291,-6.51750069379807,1.43836651861668,-0.88850546836853,6.73321286629619
9.2243724167347,-7.04061014771462,1.21668395519257,-1.28433857917786,7.2594790918419
9.23434641666245,-7.5962751442194,1.00927561461926,-1.7363125616312,7.85727781388878
9.24432041670661,-8.32814247608185,0.974757746458054,-2.11104891836643,8.64665468848703
9.25429441663437,-9.05701135575771,1.04520032286644,-2.12029278159142,9.36042412996938
9.26426841667853,-9.71753914833069,1.16105354547501,-1.63540657639504,9.92235693295276
9.2742424167227,-10.2862510371208,1.17186212360859,-0.684482080936432,10.3753909302031
9.28421641665045,-10.9664658200741,0.94810672223568,0.348484697341919,11.0128888364445
9.29419041669462,-10.9403615105152,0.514301208257675,0.743458267450333,10.9776475580617
9.30416441673879,-10.2471811115742,0.163518555164337,0.750453876256943,10.2759252659639
9.31413841666654,-8.85555080294609,-0.0435366135835648,1.10043312191963,8.92376761889838
9.32411341671832,-7.07192432641983,-0.364537643194199,3.3526554608345,7.83487715353455
9.33408741664607,-4.81985986232758,-1.66459353804588,9.21095626473427,10.5282304329943
9.34406141669024,-0.252359395623207,-4.55603290736675,18.3355047154427,18.8947573228022
9.35403541673441,9.59193744778633,-4.88597199082375,19.9931435751915,22.706910320772
9.36400941666216,19.6142393231392,2.18979629516602,-5.63301460146904,20.5242404375915
9.37398341670632,23.6705159711838,3.32268087923527,-25.4741925501823,34.9323348869077
9.38395741663408,27.11162109375,-0.132061704397202,-18.0125302505493,32.550095002193
9.39393141667824,24.3216081118584,2.02424407839775,-0.590060073137283,24.4128317924335
9.40390541672241,16.9895645499229,7.36218478918076,1.98206343412399,18.6219130038494
9.41387941665016,10.413168361187,7.59421458542347,3.15173928380013,13.2679927268948
9.42385441670194,5.7973201918602,2.27296065866947,5.5670685338974,8.3526955902822
9.43382841662969,4.20005617260933,-3.68600171685219,5.95769996166229,8.16830884228198
9.44380241667386,2.91643329262734,-8.55362865328789,6.23951821446419,10.9818820717272
9.45377641671803,0.275824856758118,-12.4080804669857,11.2940888214111,16.7807324790285
9.46375041664578,-1.44646491229534,-9.73483579695225,10.1409851503372,14.1314850088547
9.47372441668995,-2.99301719963551,-3.59039038538933,9.81116827368736,10.867754044485
9.48369841673411,-5.61234469413757,-3.03865120947361,4.10780114293099,7.58985140622099
9.49367241666187,-7.95498486757279,-3.44988997936249,-1.69845359444618,8.83562503309782
9.50364641670603,-8.90261211812496,-2.98503691971302,-3.46680597424507,10.0092802738707
9.51362041663379,-9.20379284083843,-1.20930476903915,-3.47612292766571,9.91239886655763
9.52359541668557,-9.23779264569283,-0.00772066354751587,-3.7111529302597,9.95537687108013
9.53356941672973,-8.57779168725014,-0.256891572475433,-3.95221024274826,9.4479875800485
9.54354341665749,-7.21377777814865,-1.52020590305328,-4.11395592212677,8.44240778151537
9.55351741670165,-5.60521459937096,-3.45494021952152,-3.69913924098015,7.55239523261514
9.5634914166294,-4.00359381973744,-5.62027585744858,-3.14885660648346,7.5849563028045
9.57346541667357,-3.10966038107872,-7.68327001869679,-2.94014375209808,8.79471836665944
9.58343941671774,-2.79054507851601,-8.96391081869602,-2.87486075878143,9.81853672311444
9.59341341664549,-3.07523256003857,-9.18941278338432,-2.80059410333633,10.0869068565835
9.60338741668966,-3.83607459962368,-7.87536800980568,-2.89143059849739,9.22481764208245
9.61336141673382,-4.4466671705246,-5.49347547769547,-2.92250621080399,7.64801701760989
9.62333541666158,-4.44203792989254,-3.39574183881283,-2.84111296892166,6.27173712049882
9.63331041671336,-3.84171599328518,-1.92674234211445,-2.72829094290733,5.09064723734713
9.64328441664111,-2.85144324481487,-1.03003439962864,-2.48506431341171,3.92010766237499
9.65325841668528,-1.78890534281731,-0.647808929085732,-2.10401413321495,2.83667308777937
9.66323241672944,-1.10179844677448,-0.47984649002552,-1.62592356204987,2.02184072096033
9.67320641665719,-0.647480900287628,-0.234558717012405,-1.18615096449852,1.37156969146469
9.68318041670136,-0.48157609641552,0.205522028803825,-0.836722526550293,0.987045808156418
9.69315441662911,-0.564890148639679,0.800487331151962,-0.521586838960648,1.10992507762547
9.70312841667328,-0.618358842730522,1.38578192353249,-0.207421825714409,1.53159492417386
9.71310241671745,-0.535847028493881,1.70737352192402,0.0721639966964722,1.79093942491983
9.7230764166452,-0.268828663229942,1.76436282455921,0.31739856004715,1.81272912283677
9.73305141669698,0.368313190340996,1.64494455456734,0.536977953091264,1.76913609309346
9.74302541674115,1.41501683235168,1.55170309960842,0.606254521608353,2.18577210388996
9.7529994166689,2.64598728954792,1.54993782520294,0.65655351318419,3.1360195334402
9.76297341671307,3.5525568535924,1.65755641400814,0.740565065145493,3.98956013607262
9.77294741664082,3.94797832041979,1.92185465455055,0.827457101717591,4.46819240710437
9.78292141668499,3.63404715925455,2.41844464659691,0.787079665660858,4.43561356121519
9.79289541672915,2.61029325395823,3.02498919010162,0.660610311403871,4.04976498767825
9.8028694166569,1.84162676274776,3.30908551812172,0.527808349505067,3.82363933358247
9.81284341670107,1.31413949847221,3.31191264688969,0.451325526237488,3.59157663606197
9.82281741662882,0.745297216773033,3.21994588494301,0.405799105167389,3.32989374560896
9.8327924166806,0.19489705324173,3.02527044117451,0.40556404709816,3.05855003227103
9.84276641672477,-0.244104296565056,2.84147549629211,0.432524242848158,2.88455319317939
9.85274041665252,-0.542111735343933,2.64121362268925,0.598178201168776,2.7618312212426
9.86271441669669,-0.700997541546822,2.31313687741756,0.754212320297957,2.53196287315059
9.87268841674086,-0.585371190905571,1.79957826554775,0.921329398155212,2.10475395827615
9.88266241666861,-0.107073043584824,1.11239126265049,1.11664043426514,1.57979898003496
9.89263641671278,0.40035827100277,0.31233662545681,1.41081619262695,1.49941429969855
9.90261041664053,0.0572834175825119,-0.63769149184227,3.35974813342094,3.42021042462645
9.9125844166847,-0.0567255932092667,-1.39947317898273,6.9304579603672,7.07057214884581
9.92255841672886,1.71778419703245,-0.803237861394882,1.59401194408536,2.47726617210171
9.93253341666423,2.6708648532629,0.177690451741219,-0.953321707695723,2.8414635734774
9.9425074167084,3.99830559790134,0.562622598409653,-1.56624439403415,4.33083286958685
9.95248141663615,5.47749386787415,0.636080583930016,-2.54069676965475,6.0714642103191
9.96245541668031,6.93694836974144,0.588165575265884,-3.25895733833313,7.68687155879826
9.97242941672448,8.37480325698853,0.646761692762375,-3.88629341125488,9.25520970906946
9.98240341665223,9.54490302979946,0.874985536336899,-4.40425380706787,10.5483754736995
9.9923774166964,10.3972019541264,1.07325000107288,-4.59773700356484,11.418969287709
10.0023514167406,10.9639409923553,1.13897679805756,-4.16286437273026,11.7828141806663
10.0123254166683,10.812287607193,1.16205283463001,-3.00069985628128,11.2809631556272
10.0222994167125,9.08352906346321,1.32740215301514,-1.48321641683579,9.29905520264189
10.0322744166479,7.42311160683632,0.811790583729744,-0.315488859415054,7.47402991028236
10.042248416692,7.49677599906921,-0.484523677825928,0.447240734472871,7.52571842744372
10.0522224167362,8.02671967864037,-1.19007678508759,1.15472568869591,8.19621272112987
10.0621964166639,7.98360464930534,-0.504362695813179,1.03380417264998,8.06604463121339
10.0721704167081,7.95995675504208,1.12734259307385,0.849316259622574,8.08412957424346
10.0821444166359,7.79759244024754,2.87931926071644,1.78826916575432,8.50240165356388
10.09211841668,6.77107747972012,4.50283084630966,3.4810392665863,8.84537225007328
10.1020924167242,5.08166192650795,5.54855215609074,4.52709913015366,8.78090801104406
10.1120664166519,3.46439195126295,5.83093758881092,3.44231315732002,7.60600845579613
10.1220404166961,2.10815045356751,5.06666264891625,0.551253272294998,5.51536480235132
10.1320154166315,2.2047505491972,3.01316904366016,-1.74907878756523,4.12303156366379
10.1419894166756,3.35045661538839,0.508686711788178,-2.39836472332478,4.15168339935001
10.1519634167198,4.51195805758238,-1.91839544177055,-2.30036831259728,5.41569025683617
10.1619374166476,5.12779411911964,-4.23631358742714,-1.6557350063324,6.85434779904641
10.1719114166917,4.69686309635639,-5.94370874404907,-0.770910360217095,7.614624046103
10.1818863750668,3.74095969676971,-7.16295144081116,-0.0670108820870519,8.08128351529583
10.1918603749946,2.40824008584023,-8.24207555472851,0.438325959853828,8.59788109989797
10.2018343750387,0.971916584372521,-9.20248481869698,0.599244294762611,9.27304925092778
10.2118083749665,-0.261548879742622,-9.95678382396698,0.776052986383438,9.99040590623723
10.2217823750107,-1.85061802625656,-10.6720117342472,1.79178802013397,10.9784846788667
10.2317573750624,-3.04492176353931,-10.7917007303238,2.36108755409718,11.4589304752695
10.2417313749902,-2.60637942016125,-9.51534652411938,0.858457796573639,9.9031299569585
10.2517053750344,-3.18001641869545,-7.53532727658749,-0.499739302396774,8.19410769753584
10.2616793749621,-4.20692314267159,-5.57949445188046,-1.68678372144699,7.1884768894286
10.2716533750063,-4.15390117585659,-4.11309872031212,-3.14763570785523,6.63928359171238
10.2816273750504,-3.20385844051838,-2.46531709671021,-1.8637929725647,4.45154147894794
10.2916013749782,-2.25979682207108,-0.726605422496796,0.449659069776535,2.41595330999516
10.3015753750224,-1.90900188982487,0.940443361401558,1.41116819500923,2.55345209588212
10.3115493750665,-1.83874291598797,2.51496580481529,1.74652004599571,3.57160479078397
10.3215233749943,-1.81569085299969,3.36952058494091,0.530315562486649,3.86414762163958
10.3314983750461,-1.65345459222794,3.92393720090389,-0.477579524517059,4.28477274163229
10.3414723749738,-2.23694181025028,4.14229035973549,-0.1591144323349,4.71039228614567
10.351446375018,-3.31467662572861,4.11468448519707,-0.610990181565285,5.31893020708509
10.3614203750622,-4.28129446327686,3.57402285933495,-0.62602512717247,5.6120432232998
10.3713943749899,-5.06431791543961,2.67284472048283,-0.902660992741585,5.79708648514689
10.3813683750341,-5.670541446805,2.04287856996059,-1.41609272003174,6.19142243295226
10.3913423749618,-6.35311733543873,1.68781809389591,-1.95355591893196,6.85763884469929
10.401316375006,-7.14134364008904,1.44887221097946,-2.61631676316261,7.74229507799815
10.4112903750502,-7.98208671212196,1.29087401211262,-3.08719479382038,8.65510460306364
10.4212643749779,-8.91394869983196,1.16638503670692,-3.27054768919945,9.56636909513832
10.4312393750297,-9.94365097761154,0.973467265963555,-3.09249178647995,10.4588402192549
10.4412133750739,-10.8930049109459,0.677323919534683,-2.70240064144135,11.2436334389168
10.4511873750016,-11.9070360660553,0.249876083135605,-2.22355461001396,12.1154505091218
10.4611613750458,-12.7958993840218,-0.394399373531342,-1.64142686963081,12.9067762853548
10.4711353749735,-13.0322496879101,-0.972349278330803,-1.22921921610832,13.1261561368267
10.4811093750177,-12.4494050788879,-1.09877777516842,-0.995145817995072,12.5373567635494
10.4910833750619,-10.8444484627247,-1.32831431865692,-0.683348890542984,10.9468464452575
10.5010573749896,-8.6479302084446,-1.64294363737106,0.319169096946716,8.80839540428065
10.5110313750338,-6.21188076496124,-2.0184453946352,4.48761522173882,7.92466244250198
10.5210053749615,-2.76249130725861,-3.4078578543663,13.6060428071022,14.2957774971123
10.5309803750133,4.66925663709641,-4.84047012805939,24.4865931487083,25.3934115989576
10.5409543750575,17.0551118373871,-0.710008100867272,15.735256100893,23.2159263405484
10.5509283749852,21.6943862915039,5.12273276925087,-10.6641448903084,24.7105802002227
10.5609023750294,25.5574358510971,4.52331305801869,-20.5999138212204,33.1360730586093
10.5708763750736,28.5793704557419,2.1691895377636,-9.34684146344662,30.1471266332312
10.5808503750013,24.2638212490082,4.04565810441971,2.76998626828194,24.754256099268
10.5908243750455,15.0232160925865,6.27882378280163,3.05025150060654,16.565768442091
10.6007983749732,5.98641329884529,3.89626759171486,1.63472712993622,7.32737184263149
10.6107723750174,0.0226029968261719,2.71849802613258,0.526362844705582,2.7690793159169
10.6207463750616,-4.48595461249352,1.80664637982845,0.836046661511064,4.90782374860008
10.6307213749969,-6.86976386189461,-1.26925568640232,2.38490150928497,7.38189817896776
10.6406953750411,-8.10834563970566,-5.29884739637375,5.08268986701965,10.938774566984
10.6506693749689,-10.1987497937679,-9.36090460181236,9.16746818304062,16.6037196196267
10.660643375013,-7.87709878563881,-12.0732841014862,6.16156547427177,15.6773008954874
10.6706173750572,-2.06430335283279,-11.5256876778603,-2.1313755941391,11.9014951457112
10.6805913749849,2.80451583087444,-9.33003013372421,-2.57286610364914,10.076428500671
10.6905653750291,6.08362442851067,-5.68661895096302,0.504497766494751,8.34281962390544
10.7005393750733,4.16412678658962,-3.91221879601479,2.28375052571297,6.15312313109195
10.710513375001,-1.95150354623795,-1.97882816970348,-1.56315253257751,3.18866317699045
10.7204883750528,-4.99962549090385,-0.0160693180561066,-2.26717834711075,5.48968222485475
10.7304623749806,-6.15500255942345,0.287010580301285,-2.82145930767059,6.77695095190714
10.7404363750247,-6.87100756466389,-0.0622032648324967,-2.94885142564774,7.47732164149496
10.7504103750689,-7.00703543543816,-1.006853697896,-2.50483024120331,7.50909278806032
10.7603843749966,-6.27612646222115,-2.49446020424366,-1.9295916903019,7.02391765125631
10.7703583750408,-5.33567725360394,-3.88192086338997,-1.32849675178528,6.73079972690859
10.7803323749686,-4.69393948853016,-5.23676926195622,-1.02365574516356,7.10666527349914
10.7903063750127,-4.29785904049873,-6.48910719931126,-0.898862056732178,7.83505313148435
10.8002803750569,-4.05098550260067,-7.37590118765831,-0.845080536603928,8.45745605875235
10.8102543749847,-4.28456422626972,-7.38634080648422,-0.919294713288546,8.58840054308394
10.8202293750364,-4.77397909998894,-6.33837007284165,-0.926570842266083,7.98901402885009
10.8302033749642,-4.76107371032238,-4.75154274880886,-0.88383135035634,6.78425671866518
10.8401773750084,-4.32071697592735,-3.3564310079813,-0.877639002799988,5.54116183815641
10.8501513750525,-3.69707751274109,-2.29296866118908,-0.863964704275131,4.4353717348881
10.8601253749803,-2.90145740389824,-1.53231080889702,-0.773656724318862,3.37119803760953
10.8700993750244,-2.24154006063938,-0.912532846927643,-0.62485327206552,2.49953188653077
10.8800733750686,-1.91355862498283,-0.175041663050652,-0.46833493039012,1.97779771515523
10.8900473749964,-1.68809466719627,0.590336646437645,-0.384097748994827,1.82912329883107
10.9000213750405,-1.61463317334652,1.24323616147041,-0.317467557191849,2.06239232143841
10.9099953749683,-1.55833501160145,1.7629144692421,-0.214153030738235,2.36265464146168
10.9199703750201,-1.37432781279087,2.07610829651356,-0.127283359766006,2.49303101656122
10.9299443750642,-1.02669213116169,2.1608578401804,-0.103670037165284,2.3946086975254
10.939918374992,-0.332607167959213,2.09403585970402,-0.170790116004646,2.12715372590442
10.9498923750361,0.551809927225113,2.08150644600391,-0.26915544949472,2.17016311288639
10.9598663749639,1.39019598662853,2.13327184617519,-0.260081813335419,2.55951874393403
10.9698403750081,2.14233649224043,2.21390845835209,-0.175663222074509,3.08575013174067
10.9798143750522,2.78520510882139,2.33358634471893,-0.0094268810749054,3.63360449038558
10.98978837498,3.25900177717209,2.55139512777329,0.289693282842636,4.14905192541142
10.9997623750241,3.4858848541975,2.78847925722599,0.652100200653076,4.51134619114904
11.0097363750683,2.92459162026644,2.96740054786205,0.90217735491693,4.26293632799149
11.0197113750037,2.10955787837505,3.03018385648727,0.981732305288315,3.82047732169386
11.0296853750478,1.58162505626678,2.96827879965305,0.935372071266174,3.49100812986528
11.0396593749756,1.23314854502678,2.81939582526684,0.869400129765272,3.19773431342718
11.0496333750198,1.0038640165329,2.41734829366207,0.786671383827925,2.73316073488081
11.0596073750639,1.06719023913145,1.90451707541943,0.585129920169711,2.26018966472715
11.0695813749917,1.47395121127367,1.38088195681572,0.303578154221177,2.04243160169311
11.0795553750359,2.07458772808313,0.884489600658417,0.191994714662433,2.26342617852766
11.0895293749636,2.61930966049433,0.567624306678772,0.179262841120362,2.68609672523124
11.0995033750078,2.88028375893831,0.562357134819031,0.0606333605200052,2.93529495681331
11.1094773750519,2.83427231132984,0.842881983518601,-0.192953584939241,2.9632382048786
11.1194523749873,2.85004926860333,1.22784921348095,-0.437022067308426,3.13390855192468
11.1294263750315,3.26957237362862,1.66188393831253,-0.511081731319428,3.70312925333495
11.1394003750756,3.80085126489401,2.11581790745258,-0.529155401811004,4.38214116552733
11.1493743750034,4.19210483640432,2.6132750415802,-0.597509352788329,4.97593878871315
11.1593483750476,4.37213709801436,3.1718823570013,-0.718664830550551,5.44911916085158
11.1693223749753,4.64458606481552,3.56333999633789,-0.947706187963486,5.93023765642526
11.1792957916623,5.25566103100777,3.50798966825008,-1.32050009965897,6.45536094255018
11.1892697917065,6.1126921069622,2.98046030402184,-1.76418916225433,7.02570365291503
11.1992437916342,7.12780382752419,2.35963569045067,-2.23905207037926,7.83497429282232
11.209218791686,8.15377499699593,1.81678486704826,-2.82413382411003,8.8181906200339
11.2191927917302,8.89695142865181,1.20307573020458,-3.46753453731537,9.62428863365349
11.2291667916579,9.36382587075234,0.66089499771595,-3.86334893703461,10.1510335505831
11.2391407917021,9.49983503043652,0.230501918792725,-3.59617678999901,10.1603387859364
11.2491147916298,8.94715269863606,0.166567878127098,-2.684097687006,9.34257280753675
11.259088791674,8.04719311952591,0.603536151051521,-1.61434958338737,8.22968392867881
11.2690627917182,7.21150438070297,1.41342522025108,-0.65509748339653,7.37785327848775
11.2790367916459,6.1263909637928,2.63602597296238,1.49210886240006,6.83430230737763
11.2890107916901,7.20492567837238,4.47876429140568,16.7997627604008,18.8202633460478
11.2989847917343,5.47705064892769,4.69832256138325,10.4472096812725,12.6971063170392
11.3089597916696,3.13058990478516,3.51209265947342,-0.48910438656807,4.73018087409244
11.3189337917138,3.34741986393929,1.51330677330494,-1.45543512582779,3.95140589425071
11.3289077916415,4.36753212332726,-1.10702995061874,-1.71523159503937,4.82108614157471
11.3388817916857,4.72216984570026,-3.60917105734348,-1.58516554534435,6.1512400033614
11.3488557917299,4.52091511487961,-6.00587517142296,-1.33426210641861,7.63475378904168
11.3588297916576,4.27312941133976,-8.32959375500679,-1.18711750924587,9.43668453802834
11.3688037917018,3.85719649672508,-10.5638195335865,-1.17059744395316,11.3067478227969
11.3787777916295,3.32853803515434,-12.7723865604401,-1.11403023719788,13.2459083218241
11.3887517916737,2.30408246397972,-14.453380368948,0.154829592704773,14.6366995013591
11.3987257917179,-0.87433708012104,-15.6698199105263,5.13201346993446,16.5119739466119
11.4087007916532,-3.86594217717648,-14.8540093660355,6.6556154358387,16.7297435722523
11.4186747916974,-4.25003758728504,-11.3211590909958,3.22407518863678,12.5150358960314
11.4286487917416,-4.67965591013432,-7.88283607363701,0.170637540221214,9.16882768794467
11.4386227916693,-5.44765552639961,-5.64485462844372,-1.95327642202377,8.08434433280824
11.4485967917135,-5.3704868978262,-3.86273147106171,-3.76579048275948,7.61209576248849
11.4585707916413,-4.9922907435894,-2.56854910433292,-4.00871364176273,6.89856480954934
11.4685447916854,-4.45379024863243,-0.804788542985916,-2.23587176978588,5.04807436045272
11.4785187917296,-3.51569395959377,1.47873920381069,0.468821528367698,3.84272914422443
11.4884927916573,-2.367955108881,3.57817613661289,2.45425299525261,4.9430672286555
11.4984667917015,-1.95828397750855,4.70624670803547,1.87409459710121,5.43100955369675
11.5084417916369,-2.0107311630249,4.94961834847927,-0.791722354888916,5.40079493156267
11.518415791681,-1.7874955791235,5.30551205277443,-2.1345319211483,5.99164627710297
11.5283897917252,-2.30878596425056,5.39862837731838,-1.30613933801651,6.01512102583331
11.538363791653,-3.77311587452889,4.44042585253716,-1.16180842101574,5.94168191353638
11.5483377916971,-5.08206129133701,2.57252871930599,-0.830723868012428,5.75633156840758
11.5583117917413,-5.7004897159338,1.31775307774544,-0.918185935020447,5.92242531288019
11.568285791669,-6.32182479143143,0.770490530133247,-1.46928425610065,6.53589478004407
11.5782597917132,-7.01669269680977,0.450260163545609,-2.15104972064495,7.35280392211205
11.588233791641,-7.76119644641876,0.322103229761124,-2.65219177007675,8.20816922070864
11.5982077916851,-8.54884095311165,0.240194263458252,-3.03708181679249,9.07547469214083
11.6081827917369,-9.40007685363293,0.235119464993477,-3.36452764749527,9.98682994286898
11.6181567916647,-10.0153612303734,0.365649198889732,-3.38560744464397,10.5784449556985
11.6281307917088,-10.5694047939777,0.606680783629418,-2.99692840218544,11.0028159631983
11.6381047916366,-11.0992093098164,0.94136078953743,-2.2888446199894,11.3717816165123
11.6480787916807,-11.6507736539841,1.04919397115707,-1.53197868704796,11.7978088399097
11.6580527917249,-11.8396936833859,0.656942864656448,-0.645807427167893,11.8754784188602
11.6680267916527,-10.9018575954437,-0.124258595108986,0.043614390688017,10.9026529544358
11.6780007916968,-8.73279201865196,-1.19053462207317,0.504321180582047,8.82798782172755
11.687974791741,-6.33338181316853,-2.3066990929842,1.34463155865669,6.87318120854408
11.6979497916764,-3.39103658437729,-3.6847346252203,4.76724427700043,6.91397254633513
11.7079237917205,0.747713286280632,-5.02402709126473,12.2198258507252,13.2334450236623
11.7178977916483,7.92938985049725,-4.45526082336903,19.7007570648193,21.6989493140208
11.7278717916925,17.1407548356056,0.459178921580315,8.19723033428192,19.0055493677408
11.7378457917366,20.6516219186783,3.61047206282616,-8.71242909014225,22.7031146990724
11.7478197916644,24.6047279548645,3.16017096877098,-13.5051093399525,28.2447746772536
11.7577937917085,27.3045932435989,4.37718646109104,-4.53976653814316,28.0233840521517
11.7677677916363,22.9393029427528,7.88401253342629,2.64575632452965,24.4001905659649
11.7777417916805,15.0279593539238,8.69152821779251,3.66941316604614,17.7439234130173
11.7877157917246,6.62469419002533,4.70570525586605,2.71627725362778,8.56787004949401
11.79769079166,0.765868890881538,2.87247509479523,0.574431708231568,3.02781110964023
11.8076647917042,-2.79413643836975,2.27756767988205,-1.85463272452354,4.05390867133715
11.8176387916319,-5.13018212199211,0.243482152819634,-3.25062856435776,6.07821011704661
11.8276127916761,-6.09914293885231,-3.32247213363647,-1.78738711327314,7.17168866864965
11.8375867917202,-8.3336131310463,-7.59743347764015,6.44931163430214,12.9909092761615
11.847560791648,-8.49760940372944,-10.7478875434399,14.3050669133663,19.8081142873487
11.8575347916922,-2.25882501482964,-9.70832919895649,8.41879536867142,13.0472242926415
11.8675087917363,1.14083621263504,-5.82614871919155,-0.921949349194765,6.00795362537674
11.8774827916641,0.74977033674717,-5.02469835162163,-1.26558421969414,5.2355947608456
11.8874567917082,-1.1213907122612,-5.95116686761379,-1.88066102027893,6.3411978433831
11.8974317916436,-2.1750075173378,-5.67226754486561,-2.15529304504395,6.44597276685424
11.9074057916878,-2.87297620117664,-4.22148680269718,-1.87181301355362,5.43862363430147
11.9173797917319,-4.0768313652277,-3.22412839829922,-2.15087138056755,5.62510494168495
11.9273537916597,-4.85701014697552,-2.93116652190685,-2.08652745008469,6.04449183529332
11.9373277917039,-5.02115903198719,-3.29324073314667,-1.67509616062045,6.23405323191006
11.9473017916316,-4.68551949799061,-4.14112208604813,-1.19400954924524,6.36621111033043
11.9572757916758,-4.30154103219509,-5.20486802279949,-0.85574695430696,6.80633596263249
11.96724979172,-4.05377228558064,-6.23704601168633,-0.748183840960264,7.47620169304628
11.9772237916477,-3.93787930190563,-6.98123050332069,-0.714071404114366,8.0470100476541
11.9871977916919,-4.17541951417923,-7.10609311580658,-0.685169859677553,8.27043803111498
11.9971727917437,-4.82167600750923,-6.31736102700234,-0.705238527059555,7.978406560644
12.0071467916714,-5.35456668376923,-4.82874587595463,-0.915568721294403,7.26817977136593
12.0171207917156,-5.4104795140028,-3.35964346826077,-1.23308071732521,6.48698549872824
12.0270947916433,-4.92712586402893,-2.49042094767094,-1.32110704064369,5.67662660295878
12.0370687916875,-4.02291594386101,-2.06853322863579,-1.21932682357729,4.68502297881628
12.0470427917317,-2.98303190946579,-1.7958237683773,-1.18161937236786,3.67691266161096
12.0570167916594,-2.07834251761437,-1.52304764986038,-1.06029432535172,2.78628889755565
12.0669907917036,-1.38317815840244,-1.13651102721691,-0.918114598989487,2.0119079376912
12.0769647916313,-0.954372013807297,-0.557481726408005,-0.82351944051683,1.37833090545289
12.0869397916831,-0.767446469664574,0.125272502303123,-0.72973594866693,1.0663872835001
12.0969137917273,-0.616194203495979,0.862363736629486,-0.658010493144393,1.24753529800312
12.106887791655,-0.389925084114075,1.5477328401804,-0.606208876781166,1.70733936816397
12.1168617916992,0.00316334366798401,2.061459851861,-0.48816992841661,2.11847506631261
12.1268357917434,0.541769673228264,2.45134634435177,-0.411408850774169,2.54398713072452
12.1368097916711,1.15127933979034,2.80617585539818,-0.338902280330658,3.05203568217364
12.1467837917153,1.78181325495243,3.11374816954136,-0.284231946878135,3.59876005569592
12.156757791643,2.11908913224936,3.2696483874321,-0.153630913496017,3.89932581165466
12.1667317916872,2.26488506913185,3.26558457255363,-0.0615079578012228,3.97461069864076
12.1767054999946,2.25065060734749,3.30348505496979,0.00959177255630493,3.99731580774689
12.1866805000464,2.0760571333766,3.34399690389633,0.196079360246658,3.94091050771606
12.1966544999741,1.84956143438816,3.337299503088,0.311536068543792,3.82825027850729
12.2066285000183,1.71088623672724,3.26096234858036,0.401598611623049,3.70436075440001
12.2166025000624,1.5783541238308,2.91356289446354,0.52746321760118,3.35533424953918
12.2265764999902,1.48734221220017,2.52285369873047,0.673254111260176,3.00503722767609
12.2365505000344,1.38900841712952,2.16981460511684,0.814642343893647,2.70205143398484
12.2465244999621,1.3780624294281,1.93052256703377,0.875603002309799,2.52836984218723
12.2564985000063,1.57195113033056,1.80706679463387,0.849049699679017,2.54114268567133
12.2664725000504,1.92460109174252,1.7259635746479,0.686906336545944,2.67486073254942
12.2764464999782,2.32577095627785,1.63630470871925,0.559874553233385,2.89830349621993
12.28642150003,2.67956229418516,1.54790708720684,0.568593921214342,3.14632634770869
12.2963955000741,2.84390209078789,1.55658318579197,0.668614053279162,3.31025302182785
12.3063695000019,2.79791315495968,1.73113602161407,0.708990100622177,3.36568223556629
12.3163435000461,2.87626759886742,1.96711151897907,0.732895710915327,3.56083966944213
12.3263174999738,3.366019564569,2.11745220422745,0.720402988493443,4.0413700662126
12.336291500018,4.08694792538881,2.10259267508984,0.657264753878117,4.64284786083626
12.3462655000621,4.68455821573734,2.14757413566113,0.505410078316927,5.1780884206488
12.3562394999899,4.95756237566471,2.49331941246986,0.344804459810257,5.55994213249656
12.3662135000341,4.94747358977795,3.13883213996887,0.123685056343675,5.86046586182486
12.3761874999618,5.10281598329544,3.60892255067825,-0.167561173886061,6.25228995514152
12.3861625000136,5.63757192134857,3.40970966756344,-0.506150116547942,6.60791382555303
12.3961365000578,6.31061860263348,2.77023886799812,-0.799538839682937,6.93811162275678
12.4061104999855,6.9509489428997,2.05446833610535,-1.14975672483444,7.33883314138971
12.4160845000297,7.5407178246975,1.35031212866306,-1.54313751339912,7.81454039222939
12.4260585000739,8.10442683577538,0.71696453332901,-1.91141386628151,8.35758789643884
12.4360325000016,8.6373321300745,0.22297304391861,-2.03590693473816,8.87683166171617
12.4460065000458,8.88025178074837,-0.0322017860412598,-1.75755140304565,9.05256292874325
12.4559804999735,8.45263905286789,0.263943899273872,-1.117847372666,8.53031981162533
12.4659545000177,7.33627226829529,1.28496949374676,-0.19065197467804,7.45039499421789
12.4759295000695,6.27117504000664,2.80678396582603,3.38340245962143,7.65853019952215
12.4859034999972,6.73178477525711,4.34850469887257,12.341291230917,14.7150905067828
12.4958775000414,4.68834019482136,4.35359236121178,4.31451424956322,7.71682145962074
12.5058514999691,3.15400975763798,3.64162193477154,-0.633847532272339,4.85911005856551
12.5158255000133,3.76441083222628,1.79353575289249,-1.14968889713287,4.32542991746217
12.5257995000575,4.98467883825302,-0.991334602832794,-1.29948988437653,5.24580226227582
12.5357734999852,5.4798888874054,-3.90063604652882,-0.760563712120056,6.76923931812009
12.5457475000294,5.29265577971935,-7.72916481435299,2.26310576140881,9.63710753376503
12.5557215000736,4.3101721072197,-11.4164979422092,4.8878992331028,13.1455531557744
12.5656955000013,4.32821018278599,-13.5548785007,0.82877148270607,14.2532451296418
12.5756705000531,4.36286838412285,-15.6255564880371,-1.43391561806202,16.2864591025103
12.5856444999808,3.18167468905449,-17.1224647450447,-1.27803001821041,17.4623942659567
12.595618500025,0.172229152321816,-17.3170483875275,0.927546157836914,17.3427267063687
12.6055925000692,-4.00369731545448,-14.5187580871582,5.52042646408081,16.0405435360689
12.6155664999969,-4.79213704347611,-9.76770767390728,3.6115649074316,11.463685782808
12.6255405000411,-4.8469576138258,-6.43147938072682,-0.172999230623245,8.05523766680626
12.6355144999689,-4.9418263489008,-4.21895495831967,-2.59577783346176,6.99709162178913
12.645488500013,-4.52609925627708,-2.72532640457153,-3.26962032079697,6.21316308584406
12.6554625000572,-3.85139781296253,-1.48798423647881,-2.01105743765831,4.59257163463596
12.6654364999849,-2.96632992267609,0.183248814940453,0.242313879132271,2.98184663494968
12.6754115000367,-2.25326899051666,2.34492877364159,2.00228486001492,3.81903872168392
12.6853854999645,-1.53145360708237,3.81623499691486,1.87355840742588,4.51876319454335
12.6953595000086,-1.17252695202827,4.25101816534996,0.29247184317559,4.41944732680667
12.7053335000528,-1.43935002028942,4.47932328522205,-1.01513393998146,4.81316553741318
12.7153074999806,-2.27336002349854,4.59046540617943,-1.48399760484695,5.33317797686922
12.7252815000247,-3.86507912814617,4.17510610342026,-1.47680786848068,5.87803616202339
12.7352555000689,-5.31270880579949,2.80775635778904,-1.20959596037865,6.12955895699589
12.7452294999966,-6.01956408798695,1.55773450255394,-1.37475524425507,6.36801700464406
12.7552035000408,-6.70987993597984,1.05523882269859,-1.71999473690987,7.00673958579829
12.7651774999686,-7.5660374379158,0.922134559750557,-2.05114594817162,7.89319037898686
12.7751525000203,-8.28626530230045,1.00263551652432,-2.26817588210106,8.64939838782151
12.7851265000645,-9.10367155194283,1.1316975992918,-2.60138882160187,9.53544959522366
12.7951004999923,-9.68197872161865,1.18333026766777,-3.0898359811306,10.2317187646331
12.8050745000364,-10.2187273907661,1.29398706972599,-3.21993185162544,10.7918836702646
12.8150484999642,-10.8853146529198,1.49561719179153,-2.97880320310593,11.384208993175
12.8250225000083,-11.4709975004196,1.68463194608688,-2.59881370782852,11.8817339280261
12.8349965000525,-12.1806869280338,1.75970493257046,-1.85540280282497,12.4462128797967
12.8449704999803,-12.6519479513168,1.48812690854073,-0.723222223520279,12.7596770744148
12.8549445000244,-11.945586758852,0.800688475370407,0.0409293492604047,11.9724609107519
12.8649185000686,-9.68613433778286,-0.00216054618358612,0.458180801868439,9.69696512960302
12.874893500004,-7.44433115243912,-0.871042758822441,1.08227167010307,7.57285241918659
12.8848675000481,-5.44302511632443,-1.89257121384144,3.54076974391937,6.76353447509914
12.8948414999759,-2.50629029095173,-3.81927613377571,9.63584302067757,10.6638563347266
12.9048155000201,2.81860118865967,-6.17931937515736,21.3829963302612,22.4357088735987
12.9147895000642,13.1199707865715,-4.06910193085671,18.6826351976395,23.1890509053792
12.924763499992,21.2565140390396,3.39232998847961,-6.66813081622124,22.5346679679303
12.9347375000361,26.085226585865,4.50303842246533,-20.9020441317558,33.7285020413891
12.9447114999639,32.7065808463097,4.03279013693333,-8.99977354645729,34.1610853286638
12.9546855000081,27.6173912143707,6.96155988514423,2.69347779035568,28.6083630452564
12.9646605000598,17.7410370111465,8.59693196296692,1.67925718545914,19.7856396940223
12.9746344999876,8.71937675178051,4.67420922875404,-0.0455860261246562,9.89332304837145
12.9846085000318,1.6575301015377,2.69404438555241,-1.13470840372145,3.36048275554363
12.9945825000759,-3.40029097259045,3.07834327876568,-0.830924427509308,4.66139586866784
13.0045565000037,-7.49611175537109,2.94723525524139,1.01979680210352,8.11898224017833
13.0145305000478,-10.1352689123154,1.11707020461559,3.73391760259867,10.8588057552377
13.0245044999756,-12.2396514201164,-3.51194706380367,9.57949223399162,15.9345382903309
13.0344785000198,-11.7201730871201,-8.92840827941895,13.0928654336929,19.7104555213937
13.0444525000639,-6.22912888169289,-10.6621708703041,6.05313119888306,13.7522482381316
13.0544264999917,-0.40544593334198,-9.40097440123558,-3.20106990337372,9.93929346703453
13.0644015000435,6.03854941248894,-9.31243527710438,-4.55946112990379,11.9989256015875
13.0743754999712,14.4353452169895,-10.5746099853516,2.41749038100243,18.056739119182
13.0843495000154,13.5055525588989,-10.0968784332275,5.42398131966591,17.7134546989751
13.0943235000595,2.0823478603363,-6.17357156217098,0.419703857079148,6.52880615214915
13.1042974999873,-3.73959495663643,-1.20149873614311,-0.963162644729018,4.04423687892481
13.1142715000315,-5.14157366752625,-0.225026586055756,-2.65947506189346,5.79303239658337
13.1242455000756,-5.98117010056973,0.137862142324448,-2.78152633309364,6.59774889518606
13.1342195000034,-6.91757654428482,0.161226446628571,-2.07570776224136,7.22408623476776
13.1441935000476,-7.01680203974247,-0.775689289569855,-1.52157064318657,7.2216606096586
13.1541674999753,-6.82338316261768,-2.07168897092342,-1.1340077611059,7.22055583583346
13.1641425000271,-6.63640908658505,-3.54101591169834,-0.944903032779694,7.58113190709446
13.1741165000713,-6.57776794552803,-5.1300242471695,-0.867326853275299,8.38668204906895
13.1840906250291,-6.77585348546505,-6.67097022414208,-0.846672075614333,9.54624993342957
13.1940646250732,-7.30807114720345,-7.70872704148293,-1.16865477964282,10.6863525342682
13.204038625001,-8.01322138130665,-7.74464122474194,-1.93576722711325,11.3109848980258
13.2140126250451,-8.15285698413849,-6.60634679675102,-2.55727976560593,10.800582151085
13.2239866249729,-7.42303851664066,-4.87434714138508,-2.55327910065651,9.24012960082861
13.2339606250171,-6.18431114315987,-3.45807491183281,-2.28245829105377,7.44403131788542
13.2439346250612,-4.89006971955299,-2.4553703981638,-2.01307589650154,5.83044597087938
13.2539096249966,-3.69403169810772,-1.79348897516727,-1.64759100437164,4.4245936546035
13.2638836250408,-2.68106590569019,-1.23985179305077,-1.34143664002419,3.24419467951369
13.2738576249685,-1.96993163108826,-0.664306848049164,-1.17994356036186,2.39043950460297
13.2838316250127,-1.51907914459705,-0.0215364646911621,-1.05894953884184,1.85187456180878
13.2938056250568,-1.20031292080879,0.648346872925758,-0.97033959031105,1.67411579528364
13.3037796249846,-0.904578294754028,1.25956685006619,-0.853864223957062,1.77026965575292
13.3137536250288,-0.610773249864578,1.75458452582359,-0.869981489181519,2.05145767992621
13.3237276250729,-0.104650542140007,2.15575263619423,-0.880504138469696,2.33098878210317
13.3337016250007,0.730928853750229,2.49249787867069,-0.800320100784302,2.71796153912117
13.3436756250449,1.74797717213631,2.62972150504589,-0.521500263623893,3.20044089359111
13.3536506249802,2.9078028023243,2.62903504192829,0.057451159581542,3.92051565800077
13.3636246250244,4.00977988153696,2.75323574960232,0.776582671031356,4.9256189901588
13.3735986250686,4.98333982586861,2.96946344554424,1.52255999207497,5.99746428951261
13.3835726249963,5.5623474919796,3.19228446185589,1.96824178576469,6.70852930486023
13.3935466250405,5.42830124258995,3.27178262114525,1.91757814720273,6.62179143819564
13.4035206249682,4.62107441067696,3.2598765206337,1.83012455865741,5.9439447792685
13.4134946250124,3.71682765305042,3.29321734428406,1.81214583232999,5.28620476304169
13.4234686250566,2.86245676785707,3.27882325351238,1.91931345462799,4.75690075708337
13.4334426249843,2.01157550096512,3.12990285694599,2.1701215839386,4.30722132924208
13.4434166250285,1.36040939301252,2.82152538120747,2.34813319399953,3.91477313393217
13.4533916249638,1.12323697060347,2.42766570568085,2.0455956248939,3.36744465897428
13.463365625008,1.15415529280901,1.95081415951252,1.62072641059756,2.78648603493397
13.4733396250522,1.37307183086872,1.39847739815712,1.3300426094234,2.36856045495218
13.4833136249799,1.68623612970114,0.919072957634926,1.14969240546227,2.2382761254463
13.4932876250241,2.12327632337809,0.65369765996933,1.0942875520885,2.47650726280445
13.5032616250683,2.61454885751009,0.541539292931557,1.03794743657112,2.86469290067551
13.513235624996,3.06977038353682,0.520294019579887,0.879807296544313,3.23546858329717
13.5232096250402,3.53321718782187,0.726755111217499,0.51148986697197,3.64327031278433
13.5331836249679,4.01445473045111,1.00885286092758,0.144488353282213,4.1418000630254
13.5431576250121,4.37724844157696,1.42834672987461,-0.182395486906171,4.60800894244739
13.5531326250639,4.55456905692816,2.22762076377869,-0.681301414892078,5.11571746478237
13.5631066249916,4.75922891378403,2.98780674576759,-1.42868060588837,5.79813567256698
13.5730806250358,5.38506400644779,3.12786627173424,-2.26974644422531,6.62828866966924
13.5830546249636,6.55469190895557,2.45994584441185,-3.02875245809555,7.62814925333705
13.5930286250077,7.73900626301766,1.65994324743748,-3.65465830206871,8.71803629429354
13.6030026250519,8.52828565120697,1.11337242543697,-4.26954682230949,9.60209791525785
13.6129766249796,8.79156823039055,0.754157502651215,-4.72572904586792,10.0096423763977
13.6229506250238,8.67164534568787,0.491442103385925,-4.73243697166443,9.89115301838703
13.632924625068,8.27130870938301,0.450077145695686,-4.04650010347366,9.21907155251575
13.6428986249957,7.72438880860806,0.654898678064346,-2.80294585347176,8.24327484696309
13.6528736250475,7.32415625274181,0.990722984075546,-1.57852603197098,7.55754862897769
13.6628476249753,7.09271117806435,1.57309864640236,-0.557856971472502,7.28645288239568
13.6728216250194,7.11550187051296,2.3002080988884,1.31665964841843,7.59308348414783
13.6827956250636,11.0254852759838,4.07454627335072,15.7874541950226,19.6826563975635
13.6927696249913,9.2734735250473,5.22208222568035,11.0375375568867,15.3327978305071
13.7027436250355,3.84651801913977,4.890096616745,-0.359640015363693,6.23202107933843
13.7127176249633,3.83730017602444,3.41609950482845,-1.26756408691406,5.29162802757721
13.7226916250074,5.11677913427353,0.724298111200333,-1.47311008930206,5.37364771808023
13.7326656250516,5.62220485389233,-1.92787787139416,-1.38213326096535,6.10214657782066
13.742640624987,5.66438198983669,-4.66894673466682,-1.04489860653877,7.41458697675663
13.7526146250311,5.72259277582169,-7.69494573891163,-0.480712462663651,9.60163228177589
13.7625886250753,5.57545811891556,-11.2291168999672,1.11311924099922,12.5864146615942
13.772562625003,5.16031867146492,-14.2712279069424,1.48984423577786,15.2484907649853
