Time (s),Linear Acceleration x (m/s^2),Linear Acceleration y (m/s^2),Linear Acceleration z (m/s^2),Absolute acceleration (m/s^2)
0.00874499999918044,-1.45241503894329,0.679351149201393,-0.186594007015228,1.61426291313525
0.018716000020504,-1.44566092014313,0.654609240889549,0.179515952467918,1.59708319491426
0.0286870000418276,-1.4514020088315,0.599174712896347,0.768319458961487,1.74811124326612
0.0386580000631511,-1.14356130748987,0.683129619956017,1.35276269674301,1.89851664605518
0.0486289999680594,-0.45324940636754,0.556814559102059,1.702699842453,1.84788101107458
0.0586009999969974,0.168912757784128,0.39517705321312,1.93276029646397,1.97996433975865
0.068572000018321,0.708276886492968,0.42093052983284,2.10354518651962,2.25914607996371
0.0785430000396445,1.07112614616752,0.431380673646927,2.31485595881939,2.5868820260463
0.0885140000609681,1.81293739914894,0.260505151748657,2.56174177587032,3.14914684852259
0.0984849999658763,2.28406159758568,-0.0568817138671875,3.06203831791878,3.82050409911323
0.108456999994814,2.18318075537682,-0.462135273814201,3.20612189769745,3.9062852999808
0.118428000016138,2.23005422875285,-0.919971089959145,2.73141803383827,3.64419169983085
0.128399000037462,2.25953603625298,-1.41976009368897,1.97765931129456,3.32149938646804
0.138370000058785,2.25417662456632,-1.75183633446693,1.06868975758553,3.04833406887565
0.148340999963693,2.37535563737154,-1.980468313694,0.186627920866013,3.098289709886
0.158312999992631,2.63786229103804,-2.40393010318279,-0.781181579232216,3.65341512385338
0.168284000013955,2.8396064338088,-2.94079688608646,-1.79153717458248,4.46332347831245
0.178255000035279,3.30987401515245,-3.27195628345013,-1.91081861972809,5.03112231162091
0.188226000056602,3.37007782459259,-3.73896871984005,-2.59754953980446,5.6643247826631
0.19819699996151,3.22801504254341,-4.15364682197571,-2.80413517713547,5.96121104543733
0.208168999990448,2.74063967764378,-4.48113884568214,-2.83345662474632,5.96826504448954
0.218140000011772,2.4272913376987,-4.66244638502598,-2.5161703312397,5.82762924928481
0.228111000033095,2.26136928454042,-4.80966114878655,-1.80395783007145,5.61256583568386
0.238082000054419,1.86309525355697,-4.73592600524426,0.0417882961034775,5.0893875184217
0.248052999959327,1.8877952080965,-5.41243072986603,0.161422913074493,5.73447770160245
0.258024999988265,1.54791176497936,-6.05736926078796,-0.212593651413918,6.25563340152873
0.267996000009589,0.755178718864918,-6.33630366683006,-1.02149395644665,6.46239034404202
0.277967000030912,0.0313121321797371,-6.45180371761322,-1.67336085319519,6.66534981866935
0.287938000052236,-0.55547847032547,-6.31698154270649,-2.32417700529099,6.75385896312715
0.29790900007356,-0.856762396395207,-5.8745496314764,-3.28667664885521,6.78576587944843
0.307880999986082,-1.04878875911236,-5.29614773690701,-4.61962137758732,7.10563441113089
0.317852000007406,-0.943163778483868,-4.5805526214838,-5.5426926612854,7.25206606207453
0.327823000028729,-0.766835727989674,-4.37246337264776,-5.85142681717873,7.34477152644424
0.337794000050053,-1.16551847934723,-4.82817723423243,-5.65318515658379,7.52517316382018
0.347765000071377,-2.09964333951473,-5.5968402171135,-5.50626450777054,8.12724254582088
0.357736999983899,-3.19131499350071,-6.5055595099926,-5.33771617770195,8.99988943929306
0.367708000005223,-3.88464566588402,-7.38954157233238,-4.89005100846291,9.67514317537829
0.377679000026546,-4.11145331382752,-8.3535521364212,-4.49211231529713,10.3375507109245
0.38765000004787,-4.43308408856392,-8.04939985871315,-4.24653335094452,10.1231476390703
0.397621000069194,-4.07876270055771,-6.46589082956314,-3.56899074554443,8.43692742229488
0.407591999974102,-2.71231693446636,-6.00579272568226,-3.01861572504044,7.2483274148118
0.41756400000304,-1.58547018527985,-5.11651250123978,-2.08603920757771,5.74838894467882
0.427535000024363,-0.644733293652535,-4.20082040369511,-1.44691807150841,4.48955955408799
0.437506000045687,-0.146036549806595,-3.56430274039507,-0.712566257715225,3.63776461177761
0.447477000067011,-0.112225025296211,-3.30163879662752,-0.0976911860704422,3.30498967737187
0.457447999971919,-0.0916229456663132,-3.16147372841835,0.693822715580464,3.23800878014675
0.467420000000857,0.278005868196487,-2.61938216596842,1.67034953713417,3.11905719254223
0.47739100002218,1.08728156447411,-2.99636092990637,2.32388873755932,3.94472038137935
0.487362000043504,1.93344617486,-2.76459104239941,3.23762991160154,4.67583417020887
0.497333000064828,1.26500300645828,-0.723445733338595,4.21557672947645,4.46034679117417
0.507303999969736,3.23768575251102,-0.783484212756157,5.35692778944969,6.30817976004405
0.517275999998674,5.29327266097069,-0.796291661560535,7.02688907146454,8.833458320291
0.527247000019997,5.36142254412174,0.292675070464611,7.92738074719906,9.57464756033091
0.537218000041321,6.16767522990704,0.965659478902817,7.75622631311417,9.95649348872625
0.547189000062645,6.71128677606583,1.20166596651077,7.2502784371376,9.95248253963245
0.557159999967553,7.45062041759491,1.95802582293749,6.45151486515999,10.0482662079462
0.567131999996491,7.70465328633785,2.83730555444956,5.37133298993111,9.81138130747701
0.577103000017814,7.8413611882925,3.48471131801605,4.24644096493721,9.57404925430542
0.587074000039138,8.06453654587269,3.86112874925137,3.15065316349268,9.48006752479317
0.597045000060462,8.20730567157269,3.88858610451222,2.34907708078623,9.38078522354658
0.60701599996537,8.29741828143597,3.77576290905476,1.9867289274931,9.33009257798867
0.616987999994308,8.49315850317478,3.55439141750336,1.82564719945192,9.38618279204802
0.626959000015631,9.1078259986639,3.38549985587597,1.48097605615854,9.82890603144568
0.636930000036955,9.31603599250317,3.54800859689713,1.03508317798376,10.0223893759231
0.646901000058278,9.15937037408352,3.60446697235107,1.17325463801622,9.91275815553044
0.656871999963187,10.0089023959637,3.82041692554951,0.250583011507988,10.716179566553
0.666843999992125,10.714954855442,4.79543896615505,-0.661696358621121,11.7577350924101
0.676815000013448,10.7343220031261,5.42642545580864,-3.3290856269002,12.4801671946124
0.686786000034772,11.3424733614922,4.10699948966503,-5.31972078680992,13.1840273063236
0.696757000056095,14.0580957269669,2.39534872949123,-8.47237457513809,16.5876123039419
0.706727999961004,15.0238616251946,2.44823621034622,-8.1935764092207,17.2871331645355
0.716699999989942,12.0657984960079,3.215406691432,-6.15163807153702,13.9199491558251
0.726671000011265,10.6394766569138,2.11347785174847,-3.17969014406204,11.303790584361
0.736642000032589,9.24475960314274,0.344092268943787,0.225646390914917,9.25391246463785
0.746613000053912,6.28631289660931,-0.828990168571472,0.537108857631683,6.36344564356537
0.756584000075236,4.48813620865345,-2.0476785492897,-1.14483073800802,5.06428588128034
0.766555999987759,2.79228053212166,-2.88458409368992,-2.63177358537912,4.8004050004488
0.776527000009082,0.991599481701851,-2.79163616895676,-3.47752333581448,4.56833345795523
0.786498000030406,0.413998070955277,-1.68309705197811,-3.38958062767983,3.80702862094238
0.796469000051729,1.15577467918396,-1.22446250617504,-3.24990526378155,3.66019231210961
0.806440000073053,3.18988593399525,-0.257353502511978,-1.36573913007975,3.47948939768278
0.816411999985576,4.46131678462029,-0.716460503339768,1.48476183593273,4.75617291685478
0.826383000006899,5.28214716374874,-0.0302534937858582,3.11683930009604,6.13324393416798
0.836354000028223,4.68082009077072,0.226945642232895,4.48079181343317,6.48375480119514
0.846325000049546,2.44130842924118,-0.347852028608322,4.46005232423544,5.0963766163235
0.85629600007087,-0.503938772678375,-1.57567960739136,3.89802087932825,4.23453507335062
0.866267999983393,-2.88048811912537,-2.77461550891399,3.5685992744565,5.36009363802349
0.876239000004716,-6.23732784748077,-3.99565563976765,2.5709452933073,7.84087255155605
0.88621000002604,-8.56552013576031,-5.3675223594904,2.31121138930321,10.3691913648939
0.896181000047363,-10.9225204861164,-5.73964033305645,4.08227570772171,12.9965341486235
0.906152000068687,-12.6353816199303,-5.90448796033859,4.35523192048073,14.6110879757884
0.91612399998121,-11.5781605911255,-5.3071445953846,3.28464327961206,13.1532683354561
0.926095000002533,-9.17551453649998,-4.08469236195087,1.83440369725227,10.2097901851995
0.936066000023857,-6.90049214959145,-2.93026195764542,0.655460010766983,7.52548037488052
0.94603700004518,-4.44984220862389,-1.64432474970818,0.137873836755753,4.74593602559235
0.956008000066504,-1.82986274957657,0.579975965023041,0.747488168478012,2.05997775820686
0.965979999979027,-0.163658303618431,2.40773371696472,1.47803870737553,2.82994065532342
0.97595100000035,-0.506107504963875,1.19937678158283,1.33532820001245,1.86487288374549
0.985922000021674,-1.52520819604397,-1.4240145277977,1.44639182209969,2.53892235401074
0.995893000042997,-2.52881493508816,-2.77078616738319,1.40042408242822,4.00416640162867
1.00586400006432,-3.60158020198345,-3.04732847750187,1.96556609988213,5.11087476799411
1.01583499996923,-4.64729274094105,-3.74907972514629,1.83432052060962,6.24641180021266
1.02580699999817,-3.96099451482296,-2.97810387611389,1.87442174881697,5.29830511916974
1.03577800001949,-1.21831123530865,-1.49804495573044,2.10868430435658,2.85919052371619
1.04574900004081,0.76022749722004,-0.178918951749802,2.09535893842578,2.23617685339633
1.05572000006214,2.61923627793789,0.447946420311928,1.65656881928444,3.13133756215481
1.06569099996705,3.53625393927097,0.039989692568779,0.89359196126461,3.64762905073391
1.07566299999598,1.74370461165905,-0.349662326574326,0.491457013785839,1.84507439192725
1.08563400001731,1.46765405237675,-0.656520110964775,0.083477189540863,1.60996755083223
1.09560500003863,1.1944510871172,-0.893781995773316,-0.18017259478569,1.5026715607197
1.10557600005995,1.0809689104557,-0.990313094258309,-0.138954402208328,1.47259028107764
1.11554699996486,1.03023262023926,-0.828318323493004,0.171070526540279,1.33294996976258
1.1255189999938,1.09045543313026,-0.125875934958458,-0.0880257385969162,1.10122038362015
1.13549000001512,2.44102366983891,1.26802133917809,-1.1562535661459,2.98385605928803
1.14546100003645,3.49107893586159,2.84080072760582,-4.30454825520515,6.22791430510825
1.15543200005777,3.92532649934292,3.24586483776569,-5.31399870157242,7.36087011648764
1.16540299996268,4.79971269607544,2.83807241678238,-2.95908580720425,6.31253402542643
1.17537499999162,3.57083437263966,3.53772451400757,-4.83896680891514,6.97724534695587
1.18534600001294,3.23709518373013,3.45393917620182,-4.06688262015581,6.24083450409926
1.19531700003427,2.97940546631813,2.08351847290993,-2.43663708865643,4.37665471124915
1.20528800005559,2.31740242123604,2.2913127297163,-2.14804483652115,3.90314804062257
1.2152589999605,1.94557154595852,2.71757942855358,-2.19848233401775,4.00047636712544
1.22523099998944,1.30325958430767,3.95173018634319,-2.47416042566299,4.84108735943308
1.2352018749807,0.235855044722557,4.85761065602303,-2.59177599906921,5.51083584558466
1.24517287500203,-0.413339674472809,4.93248951494694,-2.56673471331596,5.57569991930125
1.25514387502335,-0.248312537670136,4.77851361572743,-2.4043236207962,5.35505588818409
1.26511487504467,-0.0819247537851334,4.91783346891403,-2.01982884585857,5.31709566020926
1.27508687507361,-1.05395945191383,5.43424786090851,-0.954421130418778,5.61718791160284
1.28505787497852,-1.94796013355255,5.6998167014122,0.269341464042664,6.02951108597208
1.29502887499984,-2.44037755250931,5.28052690029144,1.37787941157818,5.97812333565843
1.30499987502117,-2.11871695697308,3.9062441110611,1.34926079928875,4.64415862169479
1.31497087504249,-2.24842223346233,2.38741902798414,0.450367167592049,3.31028741059646
1.32494287507143,-2.54748217105866,1.24264266908169,-0.763793714046478,2.93550797179996
1.33491387497634,-2.51397996425629,0.768364774882793,-1.80924605190754,3.19121465343617
1.34488487499766,-2.0630362612009,0.676493907272816,-1.69257421910763,2.75292028740297
1.35485587501898,-1.15725870251656,1.1317060777545,-1.1393697309494,1.97943672159038
1.36482687504031,-0.487559552192688,1.71089471518993,-0.0357680028676987,1.77936909982958
1.37479887506925,-0.0360369747877121,2.38719391018152,1.09091151595116,2.62489644824219
1.38476987497415,0.228224428296089,2.80525579601526,1.96104093968868,3.43033934733626
1.39474087499548,0.101390719413757,2.70598118394613,2.93298763722181,3.99187057980964
1.4047118750168,0.111142120957375,1.95092321008444,2.84939408808947,3.45506882882762
1.41468287503812,0.379919328689575,1.26206448823214,2.10921844750643,2.48715659500362
1.42465387505945,0.449404131174088,0.989967231452465,1.05456346929073,1.51462975780502
1.43462587497197,0.771298030614853,0.644171376228333,-0.529179740846157,1.1357326323146
1.44459687499329,1.21781246781349,0.282139849662781,-1.39306667715311,1.87171174824654
1.45456787501462,1.77495856404305,0.00465438365936279,-1.6989833521843,2.45703968188476
1.46453887503594,2.06564119577408,-0.442413200139999,-1.23835929125547,2.44870102780553
1.47450987505727,1.72267627000809,-0.379568495750427,-0.113226653337479,1.76762723707269
1.48448187496979,1.30336892724037,-0.329123396873474,0.318328194245696,1.38145778441362
1.49445287499111,1.26844701647759,-0.875559148192406,0.500978254303336,1.62066062668256
1.50442387501244,0.823871515989304,-1.54409177899361,0.648867859840393,1.86655115020939
1.51439487503376,0.741929220557213,-1.5355180066824,0.0935069094132632,1.70792800178185
1.52436587505508,0.837393786907196,-0.737513403296471,-1.3030824136734,1.71556933733895
1.5343378749676,0.987406150996685,-0.00791245222091675,-4.19285825014114,4.3075623988171
1.54430887498893,1.02556595742702,0.522349315881729,-7.19625835061073,7.28771353646465
1.55427987501025,-0.0774276602268219,1.23518922328949,-6.62365221619606,6.73828287778257
1.56425087503158,-1.27361770927906,1.22654353022575,-4.96237872719765,5.26798953425988
1.5742218750529,-1.83850318014622,0.729723742604256,-3.93767406463623,4.40657097108817
1.58419387496542,-1.89588833928108,0.155240067243576,-3.78505822777748,4.23617254855911
1.59416487498675,-2.00010384857655,-0.199495303630829,-2.53909024715424,3.23839359319636
1.60413587500807,-2.3554037681222,0.749774429798126,-0.37077779173851,2.49951290801025
1.61410687502939,-1.92946012794971,2.21136258065701,0.622678180932999,3.00011149217621
1.62407787505072,-1.37855564206839,3.43949947714806,1.39054287269712,3.95780012031799
1.63404987496324,-0.569326723515988,4.12767465949059,2.06192455932498,4.64901751997749
1.64402087498456,0.285326874554157,4.31423241376877,3.71768310070038,5.70220837768922
1.65399187500589,0.763610988557339,4.2611057817936,4.17249824523926,6.01247584876688
1.66396287502721,0.770033131688833,3.71476592481136,3.12793526887894,4.91695189587359
1.67393387504853,-1.71911239206791,-5.53971701323986,0.065890007391572,5.80070284503651
1.68390487506986,-4.00485857248306,-18.4153344118595,-5.01161929965019,19.5007631053463
1.69387687498238,-1.38709930121899,-25.1039491939545,-3.74504806995392,25.4196320714985
1.7038478750037,0.248681204617023,-27.7106753540039,0.847521310597658,27.7247482096492
1.71381887502503,-0.287593840062618,-24.2542505264282,4.01101569056511,24.585353885709
1.72378987504635,-3.67076855063438,-13.2516173386574,4.93370632052422,14.6089480079748
1.73376087506767,-4.213545114398,-2.47858735263348,4.56210056304932,6.6865625879877
1.7437328749802,-1.93014776051044,2.10029588878155,4.53758669614792,5.35970206475087
1.75370387500152,-0.853541750013828,4.43131589055061,4.81119516581297,6.59641516010061
1.76367487502284,-0.644703180491924,5.53908083617687,4.9534909594059,7.45882908944522
1.77364587504417,-0.603052878677845,6.31104661881924,5.334454600811,8.28549262793137
1.78361687506549,-0.810288141667843,6.49265938282013,5.6431758928299,8.64040663923095
1.79358887497801,-1.18127321720123,6.21017337799072,5.59062228798866,8.43899978465086
1.80355987499934,-1.58380080521107,5.52927447080612,5.25110371112824,7.78815712149673
1.81353087502066,-1.8771502058208,5.23578751444817,4.80964273005724,7.3532188178006
1.82350187504198,-1.98730268552899,5.21377976417542,4.5380076956749,7.19210575834647
1.83347287506331,-1.63084019333124,5.1917427778244,4.40391437619925,7.00059244922677
1.84344487497583,-1.1572057852149,5.20831378698349,4.27690963625908,6.83795391690694
1.85341587499715,-0.518279799968004,5.30896600306034,4.04722778946161,6.69580366740959
1.86338687501848,-0.279275883436203,5.2624964261055,4.04203019946814,6.6415263145797
1.8733578750398,-0.232092799991369,5.20362081170082,4.07799525350332,6.61525372962892
1.88332887506112,-0.176014785915613,5.14248115539551,3.9604554015398,6.49317338641474
1.89330087497365,-0.111180420219898,5.01853070855141,3.57184535622597,6.16085146771993
1.90327187499497,-0.130727369785309,4.86590785503388,3.14416597008705,5.79481911247839
1.91324287501629,-0.167704576849937,4.84361242175102,2.75840761184692,5.5765149215556
1.92321387503762,-0.232916965037584,4.80135284006596,2.16518624156714,5.27212204601557
1.93318487505894,-0.252409681677818,4.46545485913754,1.2659011387825,4.64827962149122
1.94315587496385,-0.346407620161772,3.71228319704533,0.0495823422074318,3.72874016029945
1.95312787499279,-0.571392398625612,2.36469119310379,-1.60156873941422,2.91260641677151
1.96309887501411,-0.615422663390636,0.616620465517044,-4.39488539814949,4.48039992812884
1.97306987503544,-0.349819324314594,-1.93234572887421,-8.67604829907417,8.89551278248928
1.98304087505676,0.87124097943306,-5.67994961678982,-13.7829245889187,14.9328463032783
1.99301187496167,3.72490411967039,-11.0349378848076,-17.5374463176727,21.0524770078856
2.00298387499061,5.11144764304161,-18.1789092636108,-17.8388889956474,25.9774055598549
2.01295487501193,3.31412055552006,-22.7925401687622,-11.1934325122833,25.6081278856577
2.02292587503325,0.481650356054306,-19.2044033002853,-5.06698658466339,19.8674468977435
2.03289687505458,1.64368404105306,-9.72043352007866,-4.06202504575253,10.6624843501598
2.04286787495948,1.43256140291691,-2.90410619258881,-2.67530932188034,4.20039818573189
2.05283987498842,0.511179526001215,2.13739822626114,-1.32144910275936,2.56437193414111
2.06281087500975,0.272672476619482,6.35020425260067,0.0634630474448204,6.35637254160299
2.07278187503107,0.754444600939751,9.49173137426377,1.34790278345346,9.61659986953351
2.08275287505239,1.25379827946424,11.8393030893803,1.28265545815229,11.9744023981209
2.09272387507372,1.32185504570603,13.1976592326164,0.416332571804524,13.2702239164405
2.10269587498624,1.80615652933717,12.0118415594101,0.598037429451943,12.1615865668861
2.11266687500756,1.63646755367517,6.90346311986446,0.456181054115295,7.1094254518698
2.12263787502889,0.058226281106472,1.31744492948055,0.0925716564059258,1.32197615469994
2.13260887505021,-1.91973460033536,-4.47699083089829,0.227821555137634,4.87654903560473
2.14257987507153,-3.53412964582443,-11.4583885645866,0.196807192414999,11.9926424911915
2.15255087497644,-6.19952910661697,-18.3373980438709,-0.628421608507633,19.3672208094293
2.16252287500538,-8.05534764647484,-23.0757067894936,-7.21826142311096,25.4849007750201
2.1724938750267,-6.34745547652245,-16.3210243177414,0.0805848643183708,17.5120678312728
2.18246487504803,-3.99730952471495,-2.0569574958086,12.0329242801666,12.8452646647768
2.19243587506935,-2.98342952013016,7.36957742393017,14.7345718002319,16.7427336252201
2.20240687497426,-2.91071471571922,13.2788700413704,11.0143404829502,17.4961808977349
2.2123788750032,-4.32446328699589,16.0283091938496,3.09854219287634,16.8881213299542
2.22234987502452,-4.52325517058373,15.7243475353718,0.813465811014176,16.3822058764091
2.23232087504584,-5.13135565817356,12.9764637422562,3.50841797679663,14.388482159167
2.24229241663124,-6.32524775147438,8.88477167844772,9.73156427979469,14.6168146402509
2.25226341665257,-5.69378120541573,5.1073896753788,13.1104480111599,15.1785513394605
2.26223541668151,-3.67025867342949,2.15521235346794,12.2809257459641,12.9975719346464
2.27220641670283,-3.59376949131489,-1.181051607728,10.0962130200863,10.7816315742926
2.28217741672415,-4.85336382329464,-4.24382725954056,8.57719527125359,10.7300274431755
2.29214841662906,-5.05563772380352,-6.41062294721603,6.72721926927567,10.5788013717355
2.30211941665038,-3.74472354948521,-7.7872843837738,3.36239341378212,9.27202469824589
2.31209041667171,-0.826189790815115,-7.80133231937885,0.471108410954475,7.85909146547514
2.32206241670065,0.826219173073769,-6.2066574472189,-0.35688129901886,6.27157070044354
2.33203341672197,0.774128813892603,-4.08155825436115,0.587632893919945,4.19567701596049
2.34200441662688,0.439536954760552,-2.41639519751072,1.46323881983757,2.85888550470856
2.3519754166482,0.821744298934937,-1.29123420059681,1.72677516818047,2.30744489318112
2.36194641666953,1.97368203520775,-0.566899251937866,1.15608341217041,2.35654925555251
2.37191841669846,3.24329089343548,-0.11092986702919,0.529891566261649,3.28816458329504
2.38188941671979,4.32131222248077,0.466121905446053,0.019039118885994,4.34642053222492
2.39186041674111,4.28953406721354,1.19062116086483,-0.479882888942957,4.47749582351395
2.40183141664602,3.1940979757905,1.45412534952164,-0.583641072884202,3.55772108420936
2.41180241666734,1.75356097072363,0.897209048867226,-0.165690211057663,1.97671783556854
2.42177441669628,0.805346513539553,-0.0991465580463409,0.458713994845748,0.932111353814604
2.4317454167176,0.605608550459147,-0.834980641007423,1.05037847086787,1.47215804834574
2.44171641673893,0.606071211397648,-0.993099292516709,1.42079212725163,1.83636020076193
2.45168741664384,0.689925838708878,-0.439211264848709,1.62266373932362,1.81712459919617
2.46165841666516,0.822318203151226,0.456780978441238,1.52186008036137,1.78910988865891
2.47162941668648,1.15889533817768,1.30909452080727,1.06311794579029,2.0462127543144
2.48160141671542,1.34302532851696,1.94682401955128,0.135582751482725,2.36901318667489
2.49157241673674,1.08114871233702,2.19482314646244,-0.928423240184784,2.61688763521678
2.50154341664165,0.566708340346813,1.92737384140491,-1.73571483001113,2.654926409276
2.51151441666298,0.0819896578788757,1.49000152587891,-2.01383428037167,2.50646271863769
2.5214854166843,-0.329335650801659,1.2382443934679,-1.88619263246655,2.28022669829444
2.53145741671324,-0.507917218208313,1.18395884335041,-1.63158600568771,2.07889666343859
2.54142841673456,-0.446881349980831,1.07765003085136,-1.15591091930866,1.64230404716412
2.55139941663947,-0.327459279298782,0.805439922809601,-0.449129019677639,0.978611222688055
2.56137041666079,-0.169795248806477,0.447210840582848,0.214518262445927,0.524257615466757
2.57134141668212,0.128380005061626,0.0763587892055512,0.520575563013554,0.541581948734852
2.58131341671105,0.522302245795727,-0.294181020855904,0.592635186910629,0.842946364699248
2.59128441673238,1.06281213641167,-0.543843680620194,0.618479295372963,1.34456395350295
2.60125541663729,1.36763128906488,-0.735368644595146,0.391399751901627,1.60136696358818
2.61122641665861,1.56228743702173,-0.915597957372666,-0.0564721164107323,1.81169830693547
2.62119741667993,1.7489060023427,-1.1497608178854,-0.640699299573898,2.18886220120165
2.63116841670126,1.77627301812172,-1.3541274368763,-1.43721169352531,2.656009111847
2.6411404167302,1.68281930923462,-1.63210933148861,-2.41291318058968,3.36419555236144
2.6511114166351,1.22994251668453,-1.93200775980949,-4.25950101345778,4.83619286856513
2.66108241665643,0.214460959732533,-2.16744355916977,-7.62437043070793,7.92936501556647
2.67105341667775,-0.5892505261302,-2.05182773351669,-9.32225275218487,9.56355632629365
2.68102441669907,-0.583651232421398,-1.64707586467266,-7.04610185265541,7.2595495027645
2.69099641672801,0.128195525407791,-1.41017358362675,-3.50977482318878,3.78464568198704
2.70096741663292,1.18300487011671,-1.56263213038445,-1.28935812145472,2.34601024358184
2.71093841665424,2.07272568225861,-1.89462124764919,-0.43503313690424,2.84166065112338
2.72090941667557,2.96806332975626,-2.40130762696266,-0.20864531904459,3.82350769816305
2.73088041669689,3.99909994214773,-2.88927297592163,-0.0740628799796105,4.93418524042905
2.74085141671821,5.10802819132805,-3.15163695752621,0.103694230020046,6.0029592709585
2.75082341663074,6.05496488571167,-3.34631298601627,0.164731267690659,6.92008285775087
2.76079441665206,6.47726483345032,-3.74852248549461,0.102403749525547,7.48444166754126
2.77076541667338,5.99644361257553,-4.39305112659931,-0.0703197848796845,7.43378632137479
2.78073641669471,4.59601353675127,-5.07571238458157,-0.707710145115852,6.88382526583117
2.79070741671603,2.93512684106827,-5.73448191940785,-2.52502243101597,6.91917558198292
2.80067941662855,1.41674585402012,-5.83273970067501,-5.21042930960655,7.94837057648425
2.81065041664988,0.915077847540379,-5.33458850204945,-6.29665720582008,8.30319781294311
2.8206214166712,1.36877441972494,-4.60341464996338,-5.06760463535786,6.98180396401183
2.83059241669253,1.65152998119593,-4.30840624809265,-3.27929833978415,5.66071667536045
2.84056341671385,1.48488462746143,-4.37776942849159,-1.94951958596706,5.01700848534025
2.85053541662637,1.23939307898283,-5.2030407679081,-1.92513172656298,5.68452817755032
2.8605064166477,1.49337770819664,-6.09753144621849,-3.04604793727398,6.97771271643746
2.87047741666902,1.88779608517885,-6.01396713316441,-3.98767565220594,7.45876208530574
2.88044841669034,2.15074361890554,-4.66571322441101,-4.15254257529974,6.60592066606796
2.89041941671167,2.21442710638046,-2.73427790701389,-3.75041786044836,5.14252828968659
2.90039041673299,1.83111931622028,-0.751841420531273,-3.43728659838438,3.96651013250873
2.91036241664551,0.460489574968815,0.644650847911835,-3.33186276197434,3.42475325081963
2.92033341666684,-1.27741489112377,0.924800890088081,-2.80794639229775,3.22049816525183
2.93030441668816,-2.89547307103872,0.531645804047585,-2.11264169991016,3.62348817001948
2.94027541670948,-4.43428481429815,-0.238916062116623,-1.63339528039098,4.7315898851291
2.95024641673081,-5.65987671017647,-1.1074310696125,-1.1147061753273,5.87394056878804
2.96021841664333,-6.28963996231556,-1.69250112891197,0.223747215270996,6.51722285511756
2.97018941666465,-6.26819120585919,-1.76792553305626,2.10677226483822,6.84501797364581
2.98016041668598,-5.69593590438366,-1.062470074296,3.71526118397713,6.8830003741674
2.9901314167073,-4.82520567923784,-0.222196533679962,4.68395361363888,6.72840267829217
3.00010241672862,-3.36369529634714,0.424064052700996,4.99966057419777,6.04076834720954
3.01007341663353,-1.38171547740698,0.862655512690544,4.5498120546341,4.83260819088152
3.02004541666247,0.0731667941808701,0.951767079234123,4.17602762460709,4.28373909970788
3.03001641668379,0.529584952890873,0.650437252521515,3.37190098643303,3.47465755206239
3.03998741670512,1.14435126632452,-0.172116885781288,2.0855731844902,2.38511625523248
3.04995841672644,2.37502877801657,-1.30278771400452,1.1618932056427,2.94754361214328
3.05992941663135,3.22787646353245,-2.55823052287102,1.34654140546918,4.33323246879493
3.06990141666029,2.6434858506918,-3.45720893919468,1.84766752123833,4.7280214002365
3.07987241668161,2.03863846153021,-4.13587596416473,2.16523915886879,5.09409240030888
3.08984341670293,1.86169265270233,-4.36871326088905,2.23131518080831,5.24693458364971
3.09981441672426,1.45313585445285,-3.76669036924839,2.50554623275995,4.75155996213692
3.10978541662917,0.885762393325567,-2.76892733752728,2.80553500056267,4.04011884197951
3.1197574166581,0.512320756316185,-1.96645604610443,3.01193703532219,3.63334372766443
3.12972841667943,-0.158751027882099,-1.09139508068562,3.09164072424173,3.28246667596007
3.13969941670075,-0.690071726739407,-0.0504942154884338,3.31595892012119,3.38737836885315
3.14967041672207,-1.01906399980187,0.924709088802338,3.83053757876158,4.07020840706105
3.15964141662698,-1.45450863450766,1.74243635058403,4.37603046655655,4.92963715175114
3.16961241664831,-1.76882819697261,2.43859532117844,4.75826178431511,5.63174533683408
3.17958441667724,-1.94604546278715,2.88356784760952,5.20267005443573,6.25858068337576
3.18955541669857,-2.20157273367047,3.27896709501743,5.33546032190323,6.63819889416188
3.19952641671989,-2.32209437325597,3.7352025282383,5.33537612199783,6.91448469290731
3.20949741674121,-2.18392364412546,4.27508588969708,5.20965981602669,7.08423864973368
3.21946841664612,-1.99187360018492,4.82134563982487,4.90862936675549,7.16293071849409
3.22944041667506,-1.82230420008302,5.26854069292545,4.48241792410612,7.15334775311528
3.2394113750197,-1.62709841385484,5.57340340733528,4.15464698821306,7.13942339309929
3.24938237504102,-1.58519872829318,5.64178425550461,3.98748912602663,7.08820528229979
3.25935337506235,-1.56600553527474,5.65518899738789,3.90204610258341,7.04694967481495
3.26932437496725,-1.4896936699748,5.8446282595396,3.80164443969727,7.12961199284036
3.27929537498858,-1.30908472672105,6.07693872213364,3.7921950468421,7.28173264598442
3.28926737501752,-1.15452586010098,6.15619597613812,3.6488505551219,7.24884744161956
3.29923837503884,-0.873576795905829,6.18985898137093,3.37313621073961,7.10320621436589
3.30920937506016,-0.50013559743762,6.18017891585827,3.00961715251207,6.89220882247036
3.31918037496507,-0.235087597668171,6.03324832677841,2.55685057997704,6.55689228518212
3.3291513749864,-0.0958746023476124,5.72854641079903,1.86618594557047,6.02561913030507
3.33912337501533,0.235586949884892,4.91353108763695,0.878719275891781,4.99704277807931
3.34909437503666,0.317218173444271,3.61181107521057,-0.528755525350571,3.66406727806216
3.35906537505798,0.117673022300005,2.22191388130188,-2.6320431420207,3.44650538046257
3.36903637496289,-0.299230968654156,0.395240787863731,-5.30422683477402,5.32734237380419
3.37900737498421,0.244972754269838,-2.28123096048832,-8.18177263498306,8.49737781883227
3.38897837500554,1.94287568718195,-6.064149107337,-10.4542181539536,12.2408883477594
3.39895037503447,3.87139002799988,-10.5507697176933,-11.8185980987549,16.3090669078456
3.4089213750558,5.1473553943634,-16.0561980736256,-13.2868631851673,21.4671259705796
3.41889237496071,5.19080254554749,-20.4700424838066,-11.2635476446152,23.9339628122513
3.42886337498203,3.04311088085175,-19.5543240737915,-6.18475085377693,20.7336262370892
3.43883437500335,1.93703782707453,-11.8476143217087,-3.83817433476448,12.603557548705
3.44880637503229,0.69816880479455,-4.52709035933018,-2.29843726962805,5.12491957829035
3.45877737505361,-0.720152289122343,1.05600188434124,-0.357975020706654,1.32736785207053
3.46874837507494,-0.891485648006201,5.87950807034969,1.07722786188126,6.04349085184395
3.47871937497985,-0.594712410271168,10.1066222333908,1.60383307367563,10.2503549376407
3.48869037500117,0.0564224150776863,13.0234122061729,1.23804968118668,13.0822481246116
3.49866137502249,0.85308274358511,13.9269134438038,0.957707557976246,13.9858454161774
3.50863337505143,1.40007398039103,11.5718678176403,1.09821234941483,11.7078777882208
3.51860437507276,0.750097049921751,6.33927346765995,0.865432063043118,6.44189462330934
3.52857537497766,-1.34139877930284,1.34821999490261,-0.0384992372989655,1.90224342055451
3.53854637499899,-3.67935430973768,-4.3597582501173,-1.47961423963308,5.8935896051707
3.54851737502031,-5.48229150831699,-11.707814412117,-5.66915741086006,14.1162241495327
3.55848937504925,-8.94763918697834,-20.0171007871628,-9.57937528967857,23.9271603389179
3.56846037507057,-9.80841540455818,-24.4231906199455,-6.60049607276917,27.1341814177839
3.57843137497548,-3.70627576768398,-14.0346483922005,4.57464196354151,15.2195658497019
3.5884023749968,0.659998327195644,1.30426004290581,15.9716473352909,16.038398007729
3.59837337501813,-0.0339400170743465,10.3710496973991,17.2261487424374,20.1072132392149
3.60834437503945,-2.43843905434012,15.6870411300659,8.71948258638382,18.1123886059338
3.61831637506839,-3.72461234360933,17.1484591269493,-1.49932958900929,17.6122223684377
3.6282873749733,-3.22461254775524,14.9735697233677,-1.69357964783907,15.4101955979562
3.63825837499462,-2.65647485554218,9.8569110417366,8.8357427752018,13.5013297246
3.64822937501594,-0.613176894038916,5.33040306508541,15.781578912735,16.6687556739709
3.65820037503727,0.909905546754599,2.48019592165947,16.2813404345512,16.4942822292934
3.66817237506621,-0.0929350608587265,-0.359524240493774,14.0969387805462,14.1018288738556
3.67814337497111,-2.73666064739227,-3.62543333351612,11.2509141504765,12.1332661545087
3.68811437499244,-4.48829846888781,-7.22096517562866,7.59378013730049,11.3996779773431
3.69808537501376,-3.86000842273235,-10.461024312973,2.57830635309219,11.4446650606548
3.70805637503509,-2.25730049952865,-11.1626363968849,-1.0544412624836,11.4372944025351
3.71802737505641,-1.42671842649579,-8.81958457946777,-0.885781835317612,8.978040269606
3.72799937496893,-1.30041856840253,-5.27166719913483,0.552719169259071,5.45775246704599
3.73797037499025,-0.861287118047476,-2.32312743008137,1.26809676826,2.78330845753439
3.74794137501158,-0.322828723043203,-0.456661110520363,1.20916852891445,1.33223357021227
3.7579123750329,0.10482025757432,0.522235879898071,0.848994662761688,1.00225223274817
3.76788337505423,0.207395038157702,1.27928073763847,0.641054810285568,1.44586416282289
3.77785537496675,-0.521332777440548,1.77604322254658,0.80970488190651,2.02033150472162
3.78782637498807,-1.54536471784115,1.82636143684387,1.23044654667377,2.69030610030905
3.7977973750094,-2.40190316587687,1.65686410367489,1.5001183784008,3.28095910146889
3.80776837503072,-3.05016057640314,1.63619536578655,1.31452366054058,3.70251094137294
3.81773937505204,-3.08928809702396,1.85695991635323,0.881342702284455,3.71062879256691
3.82771037507337,-2.34702236920595,1.73546705424786,0.484956517964602,2.95897663428578
3.83768237498589,-1.08676788657904,1.01921763539314,0.337873901277781,1.52775253256557
3.84765337500721,0.358097519874573,0.463515216708183,0.774170767664909,0.970783481198166
3.85762437502854,1.78382791310549,0.324657878279686,1.61900206670165,2.43076375929204
3.86759537504986,2.99918601214886,0.525479330420494,2.6350968503952,4.02678291855065
3.87756637507118,3.75502400457859,1.13653967857361,3.16476512610912,5.0406017517128
3.88753837498371,4.24705989271402,1.69603401660919,2.74753529906273,5.33507257095827
3.89750937500503,4.66426223784685,1.87814554810524,1.74963602721691,5.32390825907125
3.90748037502635,4.54628442943096,1.70782668113709,0.171387737989426,4.85950078123497
3.91745137504768,4.03393414467573,1.10844673097134,-1.62241303995252,4.48703720858093
3.927422375069,2.85089506834745,-0.064786564707756,-3.54793258309364,4.551881545457
3.93739337497391,1.65242577463388,-1.29288779318333,-4.99123824477196,5.4142893349461
3.94736537500285,1.05359984815121,-2.20784489572048,-5.52237358689308,6.03997199967
3.95733637502417,0.935813536047936,-2.73171390295029,-5.12035061359406,5.87843501520221
3.96730737504549,1.39305790632963,-2.70619139134884,-4.21090451180935,5.19574816408324
3.97727837506682,1.92243732959032,-2.26252220928669,-3.0901388669014,4.28529231796998
3.98724937497173,2.21130410850048,-1.68108210146427,-1.95019640117884,3.39399011420268
3.99722037499305,2.16228865385056,-1.2608655166626,-1.1113916811347,2.73869778226352
4.00719237502199,1.90814527273178,-1.30150951266289,-0.815780138969422,2.4495800922888
4.01716337504331,1.73480602651835,-1.60784221708775,-0.899478060901165,2.53056699708514
4.02713437506463,1.80671888530254,-1.58324239611626,-1.26313423633575,2.71411085152621
4.03710537496954,1.80565235316753,-0.79755261361599,-2.05445079445839,2.84907680816714
4.04707637499087,1.29846925288439,0.665752279758453,-3.93152103960514,4.19357916147384
4.0570483750198,0.113042466044426,1.92227039158344,-6.34655968308449,6.63224862836438
4.06701937504113,-1.08020321756601,1.81486581087112,-6.59180360198021,6.92188208724969
4.07699037506245,-1.57730893403292,0.677667735815048,-4.56618484318256,4.87823544487706
4.08696137496736,-1.11641034632921,-0.512894368171692,-2.29756194144487,2.60542195605032
4.09693237498868,0.110714689493179,-1.15907309353352,-0.657783109545708,1.33730579817278
4.10690337501001,1.48002851486206,-1.71465272068977,0.142521788477898,2.26954418718045
4.11687537503894,3.04117574483156,-2.23192080616951,0.506908865869045,3.80620243737256
4.12684637506027,4.86742462277412,-2.67612793207169,0.988711541891098,5.64189982898232
4.13681737496518,6.5698894071579,-3.28503007292748,1.48672971636057,7.49434684624571
4.1467883749865,7.82209987521172,-4.30266954481602,1.56042656064034,9.06273373330731
4.15675937500782,7.74464590251446,-5.75921914994717,0.819562118053436,9.6860635677142
4.16673137503676,5.97734543681145,-6.74279157400131,-0.829739781618118,9.04888748889019
4.17670237505809,3.14447236418724,-6.90376834452152,-5.0316945451498,9.10316833853165
4.18667337496299,0.381611512899399,-6.61529596030712,-10.7189976203442,12.6017728107666
4.19664437498432,-0.0967030066251755,-6.2054763096571,-11.1272712671757,12.741014620293
4.20661537500564,1.1942759630084,-5.4304506790638,-7.34899347066879,9.21541071713554
4.21658637502696,1.40005643874407,-4.37400908410549,-3.96334480315447,6.06631811960085
4.2265583750559,0.564650705158711,-3.65343155622482,-2.94627397298813,4.72725320654213
4.23652937496081,0.75778569996357,-4.61256495773792,-4.61664105176926,6.56988350408912
4.24650079163257,2.84109250366688,-5.75199316084385,-6.30017196714878,8.99162937138948
4.25647179165389,4.32957550764084,-5.11394791245461,-6.08357882022858,9.05028279058704
4.26644279167522,4.82683325171471,-3.69136478304863,-4.65189420729876,7.65275198326002
4.27641379169654,4.61574175000191,-2.37027645349503,-3.2213138410449,6.10738448365674
4.28638579172548,4.18806908816099,-1.52678168177605,-1.96733795240521,4.87251512157638
4.29635679163039,3.89942801177502,-1.17630308389664,-0.526899765282869,4.10692721226656
4.30632779165171,2.48923454761505,-0.85451151072979,0.143034589290619,2.63570435533721
4.31629879167303,-0.383453678190708,-1.00478846132755,-0.034305175691843,1.07601738852782
4.32626979169436,-3.8145115301013,-2.16480120241642,-0.92653992511332,4.48278247209123
4.3362417917233,-6.22914993166924,-3.87414172768593,-0.666139438524842,7.36580102561631
4.3462127916282,-7.33154420971871,-4.66583893954754,1.88417578160763,8.89222761094512
4.35618379164953,-7.90521687626839,-4.28254869103432,4.89853999614716,10.2385727152651
4.36615479167085,-8.18498567998409,-3.51857312858105,6.5279028904438,11.0448116140467
4.37612579169218,-8.40552569746971,-2.91214845299721,6.47179067015648,11.0007974866117
4.3860967917135,-7.76951878845692,-2.00284326910973,5.14460603356362,9.53120006113513
4.39606879162602,-4.64796458601952,-1.22630847215652,4.66198387026787,6.69637968371061
4.40603979164735,-2.65000081837177,-0.337620570659637,4.29071023464203,5.05437298829098
4.41601079166867,-0.485526475310326,-0.397248721718788,2.08055393457413,2.17307321087127
4.42598179168999,1.81525435835123,-1.1419354891777,-0.780027923583984,2.28201853816471
4.43595279171132,2.70784556865692,-2.26603930950165,-1.13976383328438,3.71031310963977
4.44592379173264,2.60383237302303,-3.43821367442608,0.476997141838074,4.33921451084582
4.45589579164516,2.21295243859291,-4.11555396616459,1.80520504117012,5.00936205365049
4.46586679166649,1.79235344588757,-4.07857149660587,2.74082386493683,5.23062059286641
4.47583779168781,2.08498407751322,-3.43136424601078,3.41391556978226,5.27031675612448
4.48580879170913,1.69576109781861,-2.5601858317852,3.66576421111822,4.78204814338625
4.49577979173046,1.35695836633444,-1.8353386670351,4.22461184710264,4.80178605201848
4.50575179164298,0.729411866739392,-0.871476037502289,4.82130003154278,4.95342771719093
4.5157227916643,-0.327332394719124,0.262078637480736,5.5267309319973,5.54261549302782
4.52569379168563,-1.35824548467994,1.42469046592712,6.00429993152619,6.31871754298943
4.53566479170695,-1.80824296206236,2.69587690293789,6.06039577960968,6.87501941023826
4.54563579172827,-2.50228845655918,3.8142288172245,6.01939042568207,7.5526717184562
4.55560679163318,-3.01800264447928,4.5863454580307,6.15789927005768,8.25000776015754
4.56557879166212,-3.27942259311676,5.00860330581665,6.26993309140205,8.6690703417345
4.57554979168344,-3.39825672626495,5.36523668289185,6.15257479548454,8.84240295706348
4.58552079170477,-3.19097497791052,5.62047583222389,5.8770633494854,8.73567075296044
4.59549179172609,-2.68291128695011,5.89635389864445,5.68994309306145,8.62209108476485
4.605462791631,-2.30384038925171,6.43094611465931,5.39635614931583,8.70548150070161
4.61543379165232,-1.9452756768465,6.9597770690918,5.06646091997624,8.82562295614497
4.62540579168126,-1.59459286496043,7.26094902098179,4.95921538352966,8.93632610811157
4.63537679170258,-1.45834616214037,7.35291168987751,4.89537197470665,8.95303024782728
4.64534779172391,-1.26706268817186,7.29286604762077,4.87830950707197,8.86505762480346
4.65531879162882,-1.00580748483539,7.20320133447647,4.74053799659014,8.6816161317274
4.66528979165014,-0.632511370405555,7.16660185754299,4.35170371055603,8.40818517890146
4.67526179167908,-0.306357847452164,7.15343568205834,3.70530893057585,8.06193596222682
4.6852327917004,-0.175750053226948,7.06422120451927,2.80332621484995,7.60215411409516
4.69520379172172,-0.275476143434644,6.75945438444614,1.73508230745792,6.98402615220357
4.70517479162663,-0.632747232466936,5.92464799046516,0.404028568267822,5.97202327147961
4.71514579164796,-1.22936320379376,4.36016521632671,-1.77837187618017,4.86672180533221
4.72511679166928,-1.77736980959773,2.39322677493095,-5.38834955692291,6.15799389281179
4.73508879169822,-1.68191810712218,-0.986389027833939,-9.59228243350983,9.78844697168646
4.74505979171954,0.709983688741922,-5.84367340922356,-12.24387778759,13.5854752964107
4.75503079174086,4.04431821495295,-12.6509293663502,-15.8814049172401,20.7031771909898
4.76500179164577,6.37522039532662,-22.6039230251312,-19.7394609546661,30.6794245382118
4.7749727916671,4.75770454466343,-29.1517777848244,-13.116103438139,32.3186334790017
4.78494379168842,4.71747803986073,-23.666369125843,-5.90892716646195,24.844859567238
4.79491579171736,3.81081579744816,-11.1746056473255,-4.23005268126726,12.5414303052569
4.80488679173868,1.45670908793807,-2.31591956734657,-1.45172594457865,3.09725572522885
4.81485779164359,0.772114740461111,4.21248326003552,1.30467782646418,4.47698119488837
4.82482879166491,0.388346920609474,9.55371127545834,2.81246395111084,9.96665269495554
4.83479979168624,0.0270174984633923,13.6637174034119,2.84597522109747,13.9569867157859
4.84477179171518,-0.0691404745727778,15.7422692513466,1.83687502294779,15.8492249475186
4.8547427917365,0.274608197361231,14.2369176149368,1.89969224542379,14.3657253023953
4.86471379164141,0.674184768721461,8.25587673783302,3.46244775205851,8.97789341930519
4.87468479166273,-1.17768083408475,2.53145787656307,3.51274520874023,4.48715834680606
4.88465579168405,-4.90778268992901,-2.96601241886616,1.62759674280882,5.96092541117879
4.89462679170538,-9.05058468103409,-9.72551416575909,-4.83902937412262,14.1391270643053
4.90459879173432,-9.43821882605553,-20.2203359699249,-14.7426327717304,26.7448533813003
4.91456979163922,-8.283362159729,-27.445005941391,-3.54138954877853,28.8857037256913
4.92454079166055,-4.84400301575661,-13.8718560612202,12.7688396394253,19.4662790881367
4.93451179168187,-3.46588913083077,3.24077483654022,16.5403884601593,17.2075407720375
4.94448279170319,-2.0583943028748,11.4124914300442,9.72215844869614,15.1328223622857
4.95445379172452,-2.31602423250675,15.1664307761192,2.92453373283148,15.6184982724603
4.96442579163704,-2.39839527502656,14.7652439546585,3.00346003443003,15.2573097600549
4.97439679165836,-3.23789712935686,12.197249751091,8.14896039962769,15.0220649348046
4.98436779167969,-3.84370843201876,8.16786912560463,13.1176155281067,15.9235679954777
4.99433879170101,-2.44310484007001,4.73410752117634,13.4168128752708,14.4357681822501
5.00430979172234,-2.76004541695118,1.8905410605669,11.5916816926003,12.064786805737
5.01428079162724,-4.70444167256355,-1.3323038738966,8.75706848859787,10.0296088446632
5.02425279165618,-5.67995137095451,-5.03443338096142,4.3861531662941,8.76616829874595
5.03422379167751,-4.28712735325098,-8.39044806718826,1.60980629682541,9.55879469517338
5.04419479169883,-2.50850141555071,-9.11130158364773,2.13327710866928,9.68809925229784
5.05416579172015,-1.19783180102706,-7.34506121814251,2.90412022590637,7.98865693394899
5.06413679174148,-0.154763226807117,-5.13604103207588,2.81819714605808,5.86046963080509
5.074108791654,0.737308604568243,-3.11968016982079,2.42253594338894,4.01804787643885
5.08407979167532,1.81509195193648,-1.5583946532011,1.59496197044849,2.87524892423027
5.09405079169665,2.3588477781415,-0.450522118806839,0.688613211885095,2.49826363211731
5.10402179171797,2.77927340090275,0.415830003619194,0.276821880117059,2.82381047207262
5.11399279173929,3.24526812940836,1.32420255661011,-0.0506585953384638,3.50540210760022
5.1239637916442,3.06740372300148,1.97558354973793,0.141278597339988,3.6512813646643
5.13393579167314,2.66987491965294,2.13617674291134,0.419088510721922,3.44486840726409
5.14390679169446,2.46864825546742,1.75896233618259,0.148659537658095,3.03484305483298
5.15387779171579,2.41756639480591,1.1180694937706,0.0136536870896816,2.66362405180732
5.16384879173711,2.29953216075897,0.275590968132019,0.226464416384697,2.32703344882905
5.17381979164202,2.21552989125252,-0.436467751264572,0.634107148647308,2.34545702857523
5.18379079166334,2.08205988496542,-0.720676930546761,0.801956297904253,2.3446710870723
5.19376279169228,2.00396885812283,-0.347128728032112,0.811770557016134,2.18983126641976
5.2037337917136,2.28263341516256,0.164155901670456,0.771714206188917,2.41514084146323
5.21370479173493,2.28102338433266,0.689313635230064,0.708827548027039,2.48609281009952
5.22367579163984,2.09312018573284,0.931166169047356,0.097595876455307,2.29297786762142
5.23364679166116,1.87413669705391,1.1398527109623,-0.916893115639687,2.37746620321713
5.24361754173879,1.55241207450628,1.31236252963543,-1.96965637341142,2.83051671741826
5.25358954165131,1.05449096381664,1.14809260725975,-2.81990043997765,3.2220965719546
5.26356054167263,0.298147771954536,0.89393402338028,-3.66822881251574,3.78733583842903
5.27353154169396,-0.182161232829094,0.243119625449181,-4.18004875481129,4.19107354500297
5.28350254171528,-0.196101579666138,-0.877665899991989,-3.91877498656511,4.02064057792844
5.2934735417366,0.208527790009975,-1.6304387819767,-2.98781142354012,3.41010726570542
5.30344554164913,0.679965106844902,-1.96608416318893,-2.00011261940002,2.88587767820332
5.31341654167045,1.27968945801258,-2.07341857731342,-1.53698039531708,2.88079475861888
5.32338754169177,1.82421229273081,-2.00500849306583,-1.27016434371471,2.99351415668284
5.3333585417131,2.36757533222437,-1.68991432070732,-1.3210833594203,3.19475892793592
5.34332954173442,2.66743136823177,-1.39113446474075,-1.73128074020147,3.47099095426781
5.35330054163933,2.73541431337595,-1.13029602169991,-2.87768876463175,4.12809316617012
5.36327254166827,2.30123194634914,-0.821035616397858,-5.19343613147736,5.73947269407445
5.37324354168959,1.09542351990938,-0.851644620895386,-8.36023784279823,8.47459898971192
5.38321454171091,0.12705531835556,-1.39875280201435,-9.47759982347488,9.58110384397313
5.39318554173224,0.492888704538345,-2.25973834991455,-6.7925244820118,7.17549618659683
5.40315654163715,2.44893963038921,-3.06200615823269,-2.40690253525972,4.60069199583991
5.41312754165847,4.451290563941,-2.87591091871262,1.30287249863148,5.4573187596741
5.42309954168741,5.79057016611099,-2.13857234716415,3.43876389741898,7.06606620934888
5.43307054170873,7.1220747256279,-1.61873616456985,4.35638060599566,8.50425229824522
5.44304154173005,8.27508133292198,-1.72085018455982,4.10653872907162,9.39691208629402
5.45301254163496,8.54984433531761,-2.33850092947483,2.48233483314514,9.20491232870596
5.46298354165629,7.34079216599464,-3.21643229305744,0.34613323956728,8.02199941035179
5.47295454167761,4.28990390360355,-4.33304290652275,-2.07898717314005,6.44210555626039
5.48292654170655,0.174933197200298,-5.23665465652943,-5.93702069878578,7.91841956409515
5.49289754172787,-1.99984277039766,-5.95271754920483,-8.34827794790268,10.4464329808007
5.50286854163278,-1.18982301592827,-6.20190132200718,-5.74025604486466,8.5340376304392
5.5128395416541,0.203422293663025,-5.75828885793686,-2.46157604813576,6.26567058196923
5.52281054167543,0.352614878118038,-5.4393004399538,-1.88074317365885,5.76606637263362
5.53278154169675,-0.371330353617668,-5.94506237447262,-2.70670594632626,6.54277540098739
5.54275354172569,-0.0964249715209007,-6.45832277834415,-4.50675812870264,7.87591897590618
5.5527245416306,0.381342540979385,-5.3746729195118,-5.82830809593201,7.93736142470536
5.56269554165192,-0.374283782243729,-3.18524032115936,-6.4068783903122,7.1647704053542
5.57266654167324,-1.15773174226284,-1.45505681097507,-6.91170593976975,7.15745849502854
5.58263754169457,-1.5271374848485,-0.794865818023682,-6.31869653105736,6.54903706035385
5.59260954172351,-1.57975687086582,-0.918556648492813,-3.32212393194437,3.79155449739756
5.60258054162841,-1.78156094759703,-1.96197590947151,-1.2041270595789,2.91088145669993
5.61255154164974,-2.32558179885149,-3.43407092213631,-0.679316796809435,4.20269498201319
5.62252254167106,-2.61603112667799,-4.40512036442757,-0.16526409521699,5.12601370482078
5.63249354169238,-2.73910449117422,-4.37285250484943,1.25283626630902,5.3098146062662
5.64246454171371,-3.13785623967648,-3.67312030076981,3.30704542458057,5.8544430960633
5.65243654162623,-3.82172348588705,-3.16070774316788,5.3547824460268,7.29858471791476
5.66240754164755,-4.68214448511601,-3.26511387169361,6.03769805788994,8.30886535050823
5.67237854166888,-5.17963787198067,-3.62105143010616,5.08799387633801,8.11346680710431
5.6823495416902,-5.29515780329704,-4.1594010668993,3.79539902865887,7.72944805169718
5.69232054171152,-4.58522396206856,-4.63059718608856,2.38705211520195,6.94008118704883
5.70229154173285,-3.49448669314384,-3.94868320226669,0.510239732265473,5.29753535757949
5.71226354164537,-2.19446018055081,-2.73207409143448,-0.309636929444969,3.51791974797419
5.72223454166669,-0.559306496232748,-2.10457429647446,-0.169815933331847,2.18423766502697
5.73220554168802,0.357942422479391,-1.85784752368927,0.725503880158067,2.02634549848075
5.74217654170934,1.00286311939359,-1.94165741980076,1.67791700363159,2.75520842100615
5.75214754173067,1.58613194391131,-1.90978132367134,2.57364378333092,3.57585256564328
5.76211854163557,1.91642419919372,-1.68866360127926,3.60793671011925,4.42057391904793
5.77209054166451,1.50200863704085,-1.31535513460636,4.27995983630419,4.72273705347414
5.78206154168583,0.553906300216913,-0.706822537779808,4.80244685411453,4.88568378795927
5.79203254170716,-0.771749581843615,0.0576722574234009,5.19782855987549,5.25512561640627
5.80200354172848,-1.60465943142772,0.85723982155323,5.48854042768478,5.78220269697084
5.81197454163339,-1.9980789577961,1.52162677645683,5.76491492271423,6.28823597160215
5.82194554165471,-2.15046105220914,2.1785088300705,5.78563979387283,6.54553368979249
5.83191754168365,-2.28584149003029,2.91556205749512,5.92068708658218,6.98427583976106
5.84188854170498,-2.53731649428606,3.60122469127178,6.30792712926865,7.69394170353305
5.8518595417263,-2.81204704463482,4.3201626598835,6.71174753665924,8.46279912233195
5.86183054163121,-2.87305864691734,5.23322526454926,6.69401059269905,8.96944203801498
5.87180154165253,-2.31196392595768,6.11490761697292,6.5477074098587,9.25255341428309
5.88177254167385,-2.02250365465879,6.53170182645321,6.50737214684486,9.43925537531074
5.89174454170279,-1.60698136076331,6.90146746516228,6.4218624651432,9.56310408746811
5.90171554172412,-1.0568640562892,7.27981857061386,6.27132180511951,9.66655043114647
5.91168654162902,-0.729698745757341,7.73747019946575,6.27026112020016,9.98584397347937
5.92165754165035,-0.391193345189095,8.27610751926899,6.4563972902298,10.5039066005514
5.93162854167167,0.0617264243960381,8.53429366528988,6.78344317138195,10.9019759574237
5.94160054170061,0.0751245881617069,8.53739210486412,6.80249573886395,10.9163481042519
5.95157154172193,0.139348066002131,8.34338792145252,6.45345847964287,10.5488703774297
5.96154254162684,0.0209267462790012,8.14336461424828,5.9833359092474,10.1052033018733
5.97151354164816,-0.197392791062593,8.14511351644993,5.28714945673943,9.71266119494131
5.98148454166949,-0.382147410213947,7.96274061441422,4.34482007592917,9.07902727321446
5.99145554169081,-0.460180695801973,7.21851928532124,2.83926437169313,7.77047032796017
6.00142754171975,-0.316332904994488,5.99212953686714,0.761498974263668,6.04860013401304
6.01139854174107,-0.742606766670942,4.73050680577755,-2.09191244333982,5.22544324627234
6.02136954164598,-2.27751768618822,2.98656596660614,-6.80167420506477,7.76977702869482
6.03134054166731,-2.97049898743629,-1.0298583984375,-14.2597404670715,14.6022145835291
6.04131154168863,-0.682385707944632,-8.12088382422924,-18.9482414603233,20.6264456167259
6.05128254170995,4.52175155907869,-19.8248256254196,-22.0931406712532,30.0262687152451
6.06125454173889,5.20668767631054,-35.9937755584717,-16.978183529377,40.1362702735255
6.0712255416438,3.06322120964527,-37.6927659273148,-5.33550593018532,38.1915638716406
6.08119654166512,1.97641838595271,-20.0790719175339,-5.39090829849243,20.883899324326
6.09116754168645,0.781640731841326,-5.89710468113422,-4.66259782791138,7.55821568617703
6.10113854170777,-0.418175906538963,1.32177362322807,-1.58698929190636,2.10724740182462
6.11110954172909,-1.43096613630652,6.95785450458527,0.714143544137478,7.13928598613802
6.12108154164162,-2.71523791104555,11.5275880229473,1.09860440522432,11.8938948280013
6.13105254166294,-4.22450864374638,14.5575882768631,-0.187307952046394,15.1593183879965
6.14102354168426,-5.21557895243168,13.2588959527016,-1.72886613249779,14.3523365274687
6.15099454170559,-2.44965196743608,5.02411246061325,-2.78353631347418,6.24424336384179
6.16096554172691,-0.844386033564806,-4.28354564130306,-3.8728415992856,5.83615053678046
6.17093654163182,-1.15322266191244,-11.3022912955284,-1.67984804660082,11.4844939155626
6.18090854166076,0.443814777731896,-15.2873511958122,4.67886916726828,15.9934953911097
6.19087954168208,3.79182637989521,-11.6221714138985,10.1895497846603,15.9147648579355
6.2008505417034,2.5095346185565,-1.85936663031578,15.3766592288017,15.690655094876
6.21082154172473,-2.44503924518824,5.71138366341591,12.7047752058506,14.142469137051
6.22079254162964,-5.55893330276012,10.1638290524483,6.34626732230187,13.2090979782135
6.23076454165857,-7.3708977252245,12.4363049769402,0.656940233409405,14.4714679706469
6.24073587497696,-6.90128737092018,11.4723786127567,1.11904744058847,13.4348615766873
6.25070687499829,-6.54596377015114,8.60642608702183,7.50929371833801,13.1647143463036
6.26067787501961,-6.07861453413963,5.78044337332249,11.8984149312973,14.5579997981921
6.27064887504093,-3.62095904409885,3.49487377882004,12.195035995245,13.1925884516362
6.28061987506226,-2.24521620512009,1.28807670414448,10.9110868406296,11.2139178455727
6.29059187497478,-2.6319978260994,-1.47192076563835,9.45341106176377,9.92274881268224
6.3005628749961,-2.91294396668673,-4.50035571992397,7.39152845621109,9.13088917235815
6.31053387501743,-2.15043240085244,-6.60007273435593,4.6678989136219,8.36508217994402
6.32050487503875,-0.835740048140288,-6.90943955898285,2.46429968118668,7.38319641930237
6.33047587506007,0.200704507827759,-6.30870363950729,0.924865794181824,6.37929468263087
6.34044687496498,0.326124652326107,-5.22365044891834,0.255490597877652,5.24005312443906
6.35041887499392,0.219448927044868,-3.47613462209702,0.826267704963684,3.57971899215409
6.36038987501524,0.29708387106657,-1.97147763490677,1.25412250757217,2.35537813426732
6.37036087503657,0.853369549512863,-1.15070455849171,1.08239855468273,1.79553535196293
6.38033187505789,1.68395688503981,-0.132348802685738,0.837453428506851,1.88535281609655
6.3903028749628,1.2803285586834,0.919192240834236,0.756088253259659,1.74809182839673
6.40027387498412,0.361634208261967,1.40070109426975,0.994104428887367,1.75527390216092
6.41024587501306,0.0829211193323135,1.48899697422981,1.17369990348816,1.89777748030294
6.42021687503438,0.365821399390698,1.44197658956051,0.970673466324806,1.77632450844989
6.43018787505571,1.08648108065128,1.13226887226105,0.667113584652543,1.70514353429043
6.44015887496062,2.05725599616766,0.646231350302696,0.388231145739555,2.19103642470957
6.45012987498194,2.95555087298155,0.231456184387207,0.312244312539697,2.98099806084916
6.46010087500326,3.50088150054216,-0.0642953985929489,0.473712176084518,3.53337068602904
6.4700728750322,3.57230377793312,0.0788000017404556,0.718289073854685,3.64465401865919
6.48004387505353,3.3343045592308,0.474774615168572,0.729471581429243,3.44603055950302
6.49001487507485,2.88739660441876,0.791960921287537,0.0831466756761074,2.99519191734546
6.49998587497976,2.44500211536884,0.937001690268517,-0.464830840229988,2.65933736516319
6.50995687500108,1.91886263430119,0.93091590821743,-0.707714822888374,2.24710892215431
6.5199278750224,1.44558870702982,0.820700570940971,-1.06855176329613,1.97612727522249
6.52989987505134,0.917269676327705,0.63773943901062,-1.26653833910823,1.68885008677826
6.53987087507267,0.555966712832451,0.356838614344597,-1.19287935554981,1.36359595898566
6.54984187497757,0.100616548061371,0.173515539765358,-1.43479883998632,1.44875085625857
6.5598128749989,-0.417639716863632,0.204521570205688,-1.86899699449539,1.92598072970997
6.56978387502022,-0.869931203126907,0.196577543020248,-2.06114877998829,2.24583109824424
6.57975487504154,-0.987646763920784,-0.103502148985863,-2.1026605027914,2.32536879120859
6.58972687507048,-0.643529936671257,-0.425773193836212,-2.05720278650522,2.19715654808356
6.59969787497539,-0.0486868411302567,-0.673510365486145,-2.16343236923218,2.26636851309713
6.60966887499671,0.627828116118908,-0.794829565286636,-2.60034392416477,2.79064700476141
6.61963987501804,1.29887007951736,-0.938673409223557,-3.26779979020357,3.63959980238258
6.62961087503936,1.82424416005611,-1.14954680979252,-3.83239611625671,4.39733835579007
6.63958187506069,2.15200720220804,-1.09710430204868,-4.2860485419631,4.91985619220654
6.64955387497321,2.27184764117003,-0.843577217459679,-4.71154837846756,5.29826408827902
6.65952487499453,1.7439662745595,-0.688877432942391,-5.17973259687424,5.50868407694068
6.66949587501586,0.800026862919331,-0.884491939544678,-5.44108910322189,5.57026207657343
6.67946687503718,0.323886630535126,-1.47880761623383,-4.96568006515503,5.19131515367239
6.6894378750585,1.04476382821798,-2.2877997225523,-3.71282903462648,4.48449088165296
6.69940887496341,2.76152622431517,-2.66501120567322,-1.8742378538847,4.27095766156474
6.70938087499235,4.1224317535758,-2.76034537911415,0.426984736919403,4.97958493656339
6.71935187501367,5.10079460084438,-2.79928666591644,2.45753152906895,6.31613589264423
6.729322875035,5.89847877681255,-2.93861528992653,3.56391740888357,7.49193025862104
6.73929387505632,6.72977918028832,-3.21065524399281,3.19570449829102,8.11238325966038
6.74926487496123,6.82332995295525,-4.14093205153942,1.41112112492323,8.10533236404081
6.75923687499017,5.84098602890968,-5.2387128764391,-0.798915014863014,7.88666568282569
6.76920787501149,3.77214465200901,-5.68004258751869,-3.91720822513104,7.86361744687141
6.77917887503281,0.729119140505791,-5.68753170132637,-7.67044882893562,9.57681663247053
6.78914987505414,-0.999383002817631,-5.75967230916023,-8.7854380095005,10.5525595243052
6.79912087495904,-0.379716722667217,-5.73299906551838,-6.26189667820931,8.49840061913278
6.80909187498037,0.545455173254013,-5.65302143454552,-2.62818719565868,6.25791823379667
6.81906387500931,0.917995608150959,-5.80906023144722,-1.30465414524078,6.02411978199803
6.82903487503063,1.07324649274349,-6.49044153392315,-3.27173993647099,7.34724244539134
6.83900587505195,0.816389711201191,-6.60650467157364,-5.38785956025124,8.56396092804434
6.84897687507328,-0.293579634726048,-5.01728174328804,-5.93162254929543,7.77453864616849
6.85894787497819,-1.22011802494526,-2.76526931941509,-5.63797830283642,6.39704632990484
6.86891887499951,-1.63352581948042,-0.897576254010201,-5.47736055135727,5.78580403610742
6.87889087502845,-1.87747165650129,0.0243489754199982,-4.38616106003523,4.77115306169683
6.88886187504977,-2.23654741555452,0.00150858163833618,-2.38418756425381,3.26902079519
6.89883287507109,-2.99447110980749,-1.07055326521397,-1.02333305194974,3.3406813760586
6.908803874976,-4.00256032437086,-2.58282332718372,-0.550842943936586,4.79529909792464
6.91877487499733,-4.71514470845461,-3.55475569903851,0.541931568011642,5.92980332944709
6.92874587501865,-4.90117942929268,-3.60981425106525,2.24944374203682,6.48940027074183
6.93871787504759,-5.07118137717247,-3.19979345619679,4.44509543895722,7.46421008439198
6.94868887506891,-5.14238175272942,-2.59616024136543,5.86615478396416,8.22167318975138
6.95865987497382,-5.33149415552616,-2.22491233348846,5.79488131821156,8.1826471458982
6.96863087499514,-5.60697578072548,-2.25796547412872,4.48246148586273,7.52522733611697
6.97860187501647,-4.74362035632134,-2.23371063888073,2.06712521910667,5.63599183592577
6.98857287503779,-2.71874594807625,-1.41059926092625,0.12901760738343,3.06561826523161
6.99854487506673,-0.752837201356888,-0.834345048666001,-0.421157401800156,1.20011210687644
7.00851587497164,0.636970237791538,-1.06190523326397,-0.23581579528749,1.26054864942718
7.01848687499296,1.03997890546918,-1.38540711700916,0.497564284354448,1.80235380010298
7.02845787501428,1.58616015672684,-1.63181404709816,1.7402646946907,2.86482850004699
7.03842887503561,2.69684257060289,-1.77727815449238,2.24377442792058,3.93270913905951
7.04839987505693,3.89929060220718,-1.92186517953873,2.65950342088938,5.09617419389359
7.05837187496945,3.7734740164876,-1.7402664488554,3.13508524417877,5.20541957524908
7.06834287499078,2.12702336534858,-1.02006840527058,3.71180226355791,4.3979818089578
7.0783138750121,1.19931187748909,-0.128334104418755,4.41474166542292,4.57654483144921
7.08828487503342,0.83768395498395,0.681277222037315,5.15893522024155,5.27071775646858
7.09825587505475,0.450833775401115,1.44502591252327,5.71485106229782,5.91192639036995
7.10822687495966,-0.322458448112011,2.11552671611309,5.85990761876106,6.23842528509888
7.11819887498859,-1.09574672475457,2.69399936199188,5.69935827970505,6.39851375302621
7.12816987500992,-1.51796612709761,3.42843829929829,5.58686252832413,6.7284056986409
7.13814087503124,-1.94469446361065,3.95525021016598,5.57102008223534,7.10366845640232
7.14811187505256,-2.27944799825549,4.30467923283577,5.64645033359528,7.45711390848475
7.15808287507389,-2.16485411971808,4.55171239972115,5.7840891122818,7.67205096361152
7.1680538749788,-1.99520139679313,4.70883000791073,5.91211506843567,7.81709749456855
7.17802587500773,-1.57011218100786,4.88642281115055,5.98297045826912,7.88278603380827
7.18799687502906,-1.07963735327125,5.14668062567711,5.81064950466156,7.83693728080826
7.19796787505038,-0.673060129880905,5.48271484673023,5.55081268966198,7.83100846281652
7.2079388750717,-0.230492709428072,5.71446339190006,5.328293389678,7.81658040276896
7.21790987497661,0.0075503633916378,5.82935065448284,5.2422375780344,7.83979852326977
7.22788087499794,0.147589716464281,5.83942833065987,5.23507766246796,7.84389852594933
7.23785287502687,-0.0385656031966209,5.840267406106,5.21964802980423,7.83293918242783
7.24782312498428,-0.0943897019326687,5.87218384802342,5.05109853029251,7.74629259217215
7.2577941250056,-0.059424229413271,5.84881662011147,4.73794709533453,7.5273056117659
7.26776512502693,-0.117485034316778,5.78647068321705,4.288328371346,7.20324967785442
7.27773612504825,-0.00515125080943108,5.64289405703545,3.53824608564377,6.66044031854384
7.28770712506957,0.10555364459753,5.36692126572132,2.46381933242083,5.9063856246566
7.2976791249821,0.0439178520441055,4.88040193319321,0.91147157728672,4.96498058842587
7.30765012500342,-0.361005778759718,4.33530402481556,-1.01410336822271,4.46694434723789
7.31762112502474,-1.32356930315495,3.76529054582119,-3.7385085439682,5.46860994476912
7.32759212504607,-3.02688368797302,2.06274039208889,-8.69631124019623,9.43624671000263
7.33756312506739,-3.18775403916836,-2.04945317924023,-14.4114897465706,14.9014452609014
7.3475341249723,0.273948046714068,-8.34003629744053,-18.9814337646961,20.7346589250576
7.35750612500124,4.52940614908934,-16.2398041534424,-21.9210430812836,27.6546359364404
7.36747712502256,5.13155095517635,-24.2471496677399,-15.5055692839623,29.2349065508187
7.37744812504388,2.11761037141085,-25.710537006855,-3.79773148298264,26.0756352038221
7.38741912506521,0.918769925683737,-15.8652923297882,-2.35717167377472,16.0657367458086
7.39739012497012,1.02190340772271,-5.89382790148258,-2.76570172101259,6.59018967227969
7.40736112499144,-0.405113665312529,0.0222305291891098,-0.589890211522579,0.715948140510982
7.41733312502038,-1.22992132052779,5.28201969444752,1.82136089801788,5.72099589477643
7.4273041250417,-1.12205992609262,10.2369332814217,2.60610635519028,10.6228815215357
7.43727512506302,-1.28557336494327,14.2419415426254,0.729641589224339,14.3184487507878
7.44724612496793,-2.91532115221024,15.6642065834999,-1.08245030254126,15.9699143381722
7.45721712498926,-3.88047543168068,11.5501079893112,-1.88349458098412,12.3292593442276
7.46718812501058,-1.93448478654027,3.04899142563343,-3.50883692979813,5.03492966215588
7.47716012503952,-3.79447166025639,-5.54309611916542,-4.44862803429365,8.0569362138656
7.48713112506084,-5.48229560136795,-14.9841286253929,-4.22250801891089,16.5048250427826
7.49710212496575,-3.10372955024242,-23.8379919219017,-2.74621236652136,24.1955507966182
7.50707312498707,0.122940778881311,-24.5386661124229,2.07531219810247,24.6265744619847
7.5170441250084,1.9382514166832,-9.47899379968643,12.8226024484634,16.06322743287
7.52701512502972,1.53203730538487,3.70087235569954,17.3756117606163,17.8313061370708
7.53698712505866,0.0815888312458992,11.3746611142159,14.108641397953,18.1230056639806
7.54695812496357,-3.45824857413769,15.9425176763535,7.04338172793388,17.7688654456823
7.55692912498489,-5.44267369866371,16.7211960625649,-0.475064929425716,17.5910994949159
7.56690012500621,-5.62665400028229,14.1046793246269,-0.147408306598663,15.186274832832
7.57687112502754,-5.68637512207031,9.56556007325649,8.13436925768852,13.7841490402711
7.58684212504886,-5.24284042596817,5.19096158981323,13.5483623635769,15.4269757468491
7.59681412496138,-3.29271068304777,1.96966967582703,13.2406818759441,13.7853980288596
7.60678512498271,-2.93956926316023,-1.03939930021763,12.0761352038384,12.472147362006
7.61675612500403,-3.61801877170801,-4.08613779366016,10.9812347173691,12.2627116829501
7.62672712502535,-3.78959508240223,-6.51323865830898,8.63522303938866,11.4608195888709
7.63669812504668,-3.38235463857651,-7.92098623216152,4.76222736597061,9.84180650472218
7.646669125068,-1.32488945826888,-7.89193901896477,0.388962668962777,8.01182410650267
7.65664112498052,0.535676435977221,-6.70902799665928,-2.48772830486298,7.17543016291258
7.66661212500185,0.940946002677083,-4.59360185265541,-1.98508644461632,5.09186857187739
7.67658312502317,0.516948388963938,-2.3976425921917,-0.00484383344650269,2.45274317845684
7.6865541250445,0.413182822912931,-0.840491057038307,1.07692380666733,1.42720361107955
7.69652512506582,1.29059349194169,0.0268369656801224,1.53212135910988,2.00343396277738
7.70649612497073,1.62642627641559,0.851951014995575,1.65353703796864,2.47088399171251
7.71646812499967,1.02802500396967,1.33467141151428,1.55433025360107,2.29218797718685
7.72643912502099,0.562768194079399,1.59789844214916,1.44493645012379,2.22661824671102
7.73641012504231,0.20925489127636,1.69296481311321,1.21025143325329,2.09156066124179
7.74638112506364,0.161615871191025,1.66555131196976,1.03503844678402,1.96760906913596
7.75635212496854,0.784980369061232,1.27759147703648,0.991757868155837,1.79778136353027
7.76632312498987,1.55678564563394,0.603578251004219,1.14985780857503,2.02732859484548
7.77629412501119,2.11635365858674,0.178129577636719,1.53044613182545,2.6178136520887
7.78626612504013,2.59458412438631,0.328407697677612,1.8178341498971,3.185002259174
7.79623712506145,2.88421338021755,0.893091439604759,1.79712477385998,3.51368134510552
7.80620812496636,3.17123565495014,1.41724462151527,1.63787176251411,3.84030491066557
7.81617912498768,3.5840882563591,1.90112744450569,1.06739649966359,4.19515309340649
7.82615012500901,3.80719286262989,2.22267109572887,0.369459683150053,4.42396708289313
7.83612112503033,3.71424669206142,2.05823394298554,-0.600443851053715,4.2886464381918
7.84609312505927,3.03370388031006,1.1917590290308,-1.6205811072886,3.640045596141
7.85606412496418,1.80575760304928,-0.226857349276543,-2.5942949795723,3.16900476789245
7.8660351249855,0.801971793025732,-1.49188082098961,-3.36783804863691,3.76977456390857
7.87600612500683,0.161923727095127,-2.50772051990032,-4.05846409142017,4.7734696270818
7.88597712502815,-0.0296481607854366,-3.41732040345669,-4.56864301264286,5.70538839434177
7.89594812504947,0.269663499444723,-3.73304256677628,-4.44953318327665,5.814350415771
7.905920124962,0.96605548158288,-2.86513742387295,-3.57994287282229,4.68596485516534
7.91589112498332,1.29001242488623,-1.23347891271114,-2.49794689893723,3.07007182234781
7.92586212500464,1.33138571485877,0.150217308998108,-1.70170581579208,2.16586145566914
7.93583312502597,1.17469846174121,0.930276807546616,-1.23022786080837,1.938760429807
7.94580412504729,0.823421426564455,1.22809772014618,-1.02121007412672,1.79697436583041
7.95577512506861,0.28420040845871,1.1083935213089,-0.943454092741013,1.48304136670472
7.96574712498114,-0.260733485519886,0.684852209687233,-0.911882928907871,1.16984399627405
7.97571812500246,-0.54371182590723,-0.0158097016811371,-1.10302490025759,1.22985219717122
7.98568912502378,-0.913313450217247,-0.664414436817169,-1.9451932311058,2.24930316065635
7.99566012504511,-1.79541972577572,-1.25568488359451,-2.66481356978416,3.44985621153957
8.00563112506643,-2.13006757199764,-1.31779693186283,-2.60267754793167,3.61216099217776
8.01560212497134,-1.29605669170618,-0.884143445491791,-2.46363894581795,2.92078575655138
8.02557412500028,0.22306893825531,-0.438751673698425,-2.60142712086439,2.64758113143985
8.0355451250216,1.82307939469814,-0.408947246074677,-2.89072425484657,3.44196790325001
8.04551612504292,3.34654102742672,-1.01467317938805,-2.85880108863115,4.51681770426684
8.05548712506425,4.58069675534964,-1.73628157138824,-2.23380741029978,5.38399034229477
8.06545812496916,5.66603850603104,-2.0730034250021,-1.19623331844807,6.15079748520971
8.07542912499048,6.47591471135616,-2.36193130731583,-0.163362726867199,6.89513438808609
8.0854001250118,6.72283853530884,-2.67904393851757,0.338027536869049,7.24486694232703
8.09537212504074,6.65704917311668,-3.43916910946369,0.530904961824417,7.51172736028622
8.10534312506206,6.31132436156273,-4.51007203817368,0.400857915580273,7.76751260410014
8.11531412496697,5.73437725424767,-5.18489978134632,-0.00729703277349472,7.73086809377352
8.1252851249883,5.1992365694046,-5.65675780534744,-0.660010898709297,7.71145797883957
8.13525612500962,4.46966134607792,-5.95634457707405,-2.92174811929464,7.99953282023796
8.14522712503094,2.83877992987633,-5.72722494006157,-6.39045823931694,9.03867985453549
8.15519912505988,0.534755938053131,-5.25595397651196,-7.64625772833824,9.29388365349315
8.16517012496479,-1.30430155813694,-5.03324288785458,-5.36335621833801,7.46996160950524
8.17514112498611,-2.43668240457773,-5.202887570858,-3.22683098137379,6.58937769429869
8.18511212500744,-2.85922033399344,-5.7100715482235,-3.53913983255625,7.30106627545178
8.19508312502876,-2.41573680102825,-6.56752654731274,-5.33785651087761,8.80118749784472
8.20505412505008,-1.60170117884874,-5.94660954773426,-6.20956994533539,8.7456486715133
8.21502612496261,-0.852755007147789,-3.56443459510803,-6.21652813196182,7.21648162891664
8.22499712498393,-0.236112614572048,-1.58544679641724,-5.79012109994888,6.0079025510658
8.23496812500525,0.313175116181374,-0.311699278950691,-5.39964871644974,5.41769705271076
8.24493954167701,0.601876126527786,0.0674523103237152,-3.95647286295891,4.00255945629573
8.25491054169834,0.239641701579094,-0.30117955327034,-1.36226208329201,1.41559007202612
8.26488154171966,-0.477826861739159,-1.21366971552372,-0.1951802046597,1.31886617989466
8.27485354163218,-1.15743879675865,-2.25980208456516,-0.420283243060112,2.57352055248142
8.28482454165351,-1.62435884714127,-3.12671378552914,-0.858547258973122,3.62656644180061
8.29479554167483,-2.07201787680388,-3.54272154450417,0.22459966622293,4.11030157455098
8.30476654169615,-2.5446144041419,-3.49868207037449,2.37759599804878,4.93647662055276
8.31473754171748,-2.76560816556215,-3.11232554197311,4.47783107578754,6.11441983739512
8.3247085417388,-2.83878694653511,-2.71532006442547,5.67803991615772,6.90447765363681
8.33467954164371,-2.91754835665226,-2.41641390860081,5.71889031887055,6.8597996377704
8.34465154167265,-2.9404665184021,-2.20269232928753,4.93552831292152,6.15285596865357
8.35462254169397,-2.55175999403,-2.13646793425083,3.41281980156899,4.76689765981979
8.36459354171529,-1.95694949671626,-2.38609609544277,1.70243671774864,3.52440018830496
8.37456454173662,-1.66849480032921,-2.11560974657536,0.596825374737382,2.75968839300032
8.38453554164153,-0.832995218932629,-1.58125083446503,0.541600688695908,1.86750275562229
8.39450654166285,-0.434664762318134,-1.34013680398464,1.02630570329726,1.74304432118513
8.40447854169179,0.521930655241013,-1.28968059539795,1.30983843281865,1.91085435528591
8.41444954171311,1.62017691850662,-1.26226767897606,1.28463313266635,2.42251423653059
8.42442054173444,2.42095295593143,-1.17785142660141,1.91183355018497,3.30203796489273
8.43439154163934,3.17760034918785,-0.85085933983326,2.96516164898872,4.4286893320681
8.44436254166067,3.64833161473274,-0.39743057012558,3.77118132323027,5.26213675248084
8.45433354168199,3.34761691510677,0.0178813701868057,4.33963096439838,5.48080793869608
8.46430554171093,2.09535426065326,0.466441748142242,4.64229512572289,5.11458516561785
8.47427654173225,0.709998891502619,0.991365593075752,4.76380114406347,4.91738807755193
8.48424754163716,0.0291045159101486,1.54059748291969,4.90083912134171,5.13736428244077
8.49421854165848,-0.410609170943499,2.17104778289795,5.14322258234024,5.59774837755178
8.50418954167981,-0.854462832659483,2.57613352775574,5.4718314242363,6.10798737887395
8.51416054170113,-1.20882178902626,2.87827436327934,5.6823861515522,6.48345785852642
8.52413154172245,-1.33217231154442,3.06311420559883,5.81828655302525,6.70893509562444
8.53410354163498,-1.42346108883619,3.251186388731,6.0721627163887,7.03332172305529
8.5440745416563,-1.71955765753984,3.56238456130028,6.18983325362206,7.34584903246996
8.55404554167762,-1.45682120829821,4.07082335114479,6.20563476920128,7.56332160349492
8.56401654169895,-1.09663038522005,4.84418427944183,6.00749251127243,7.79478580898626
8.57398754172027,-0.770537746399641,5.59247644007206,5.83090309023857,8.1159689501095
8.58395954163279,-0.605120600312948,6.29567311942577,5.33082347989082,8.27159899543847
8.59393054165412,-0.569442206025124,6.62550753772259,5.2048107200861,8.44462368553772
8.60390154167544,-0.558447832614183,6.58024248719215,5.3415683233738,8.49375107507105
8.61387254169677,-0.706515266597271,6.3411755669117,5.12215623378754,8.18206305742393
8.62384354171809,-0.804136139899492,6.15468564033508,4.68779932737351,7.77831940695179
8.63381454173941,-0.82765027910471,6.03936685323715,4.32610460042954,7.47490053354152
8.64378554164432,-0.921846292018891,6.10723723948002,3.63028389126062,7.1642939928891
8.65375754167326,-0.804573073089123,6.11072568833828,2.39373343616724,6.61197897996375
8.66372854169458,-0.906674521565437,5.73253362715244,0.904623903036118,5.87386966832205
8.67369954171591,-1.48144266396761,5.18491147577763,-1.18032333701849,5.52006726029533
8.68367054173723,-2.4269228169322,4.40622841179371,-3.6589033806324,6.22031969636991
8.69364154164214,-3.18148202329874,2.85461185097694,-6.07014074921608,7.42409896213706
8.70361254166346,-1.92788985818625,0.126158355474472,-8.90213732421398,9.10937561938891
8.7135845416924,0.896169706285,-3.81606074988842,-12.1386255669594,12.7558484799774
8.72355554171372,3.02655332028866,-8.91943280339241,-15.4629524374008,18.1057782107288
8.73352654173505,4.05001983493567,-15.5797716200352,-17.2476746821404,23.5926731494498
8.74349754163995,3.83465606510639,-21.9647849321365,-12.6824856197834,25.6515458744436
8.75346854166128,3.32876724600792,-22.8842291879654,-6.60695724606514,24.0503746531474
8.7634395416826,3.32344218671322,-13.9131654703617,-4.3369017764926,14.9475803524529
8.77341154171154,2.45098293989897,-4.48333447515965,-2.74092443704605,5.79829907450685
8.78338254173286,2.05059718698263,1.31757239878178,-0.59939573764801,2.51002412331102
8.79335354163777,1.53828812509775,6.10467031180859,0.951739597320557,6.36703527811821
8.80332454165909,1.08350514024496,10.6950977110863,1.44782789826393,10.8469029709688
8.81329554168042,-0.665046813189983,13.8959173536301,0.545917980372906,13.9225296840749
8.82326654170174,-3.0620698928833,13.0454819369316,0.867662483453751,13.4280940263652
8.83323754172307,-3.78787921696901,7.25861949026585,4.15926336497068,9.18341208952317
8.84320954163559,-5.71486392617226,0.537190133929253,4.33126798421145,7.1908362021194
8.85318054165691,-9.20957924544811,-6.18161323785782,-0.261837439835072,11.0949200513364
8.86315154167824,-9.16566841006279,-14.4964989066124,-9.54323598861694,19.6273103375646
8.87312254169956,-4.02182689994574,-22.7231360578537,-6.29846633434296,23.9204239528005
8.88309354172088,0.351709436774254,-16.9082414746285,12.9315501093864,21.2893709987833
8.89306454162579,-0.472777644842863,-1.17845602869987,16.4865987539291,16.5354230603907
8.90303654165473,-1.96509525284171,7.21136053919792,10.1367611217499,12.5944132939356
8.91300754167605,-2.62972735226154,11.0390426301956,3.86805565327406,11.989069299797
8.92297854169738,-3.32879472792149,11.3930120158196,3.56153203725815,12.3921792912168
8.9329495417187,-2.90939061373472,9.74882701456547,8.08787219882012,12.9968403316982
8.94292054174002,-1.87110316157341,7.41115522027016,12.0599056720734,14.2782202518204
8.95289154164493,-1.9388655205071,4.38155433118343,12.4214612352848,13.313523841696
8.96286254166625,-2.45949794769287,1.8582726162672,11.253580480814,11.668135279865
8.97283454169519,-3.7437847790122,-0.409895664453507,10.1879991030693,10.8618260274892
8.98280554171652,-4.4907583925128,-2.7363320338726,9.00198262453079,10.4254551513052
8.99277654173784,-4.05669589340687,-4.94593811094761,6.15873308300972,8.8797003641264
9.00274754164275,-2.65356001853943,-6.02206552684307,2.44169902324677,7.01915579693932
9.01271854166407,-0.571103984713554,-5.95278479218483,-0.66453372001648,6.01692709017333
9.0226895416854,0.706735341176391,-5.10961863398552,-2.02707646965981,5.5422663632388
9.03266154171433,0.408795803189278,-3.53530493617058,-0.960638474822045,3.68623402400413
9.04263254173566,0.141248264908791,-2.20884301543236,1.07139994204044,2.4590315929179
9.05260354164057,0.357952216565609,-1.38422422528267,2.13507103443146,2.56957872369613
9.06257454166189,0.592111714929342,-0.689018350839615,1.9431928986311,2.14507370783398
9.07254554168321,1.01028659820557,0.200140836238861,1.41364273667336,1.74903434837441
9.08251654170454,1.08608215436339,1.10134879589081,0.839837338328362,1.76007680829197
9.09248854173347,1.20725488141179,1.70877159118652,0.429306666254997,2.13580638477126
9.10245954163838,1.3007454277575,1.9754847317934,0.371360722593963,2.39424045986747
9.11243054165971,1.39802453130484,1.88419800102711,0.525489855408669,2.40433239909587
9.12240154168103,1.60360547080636,1.33248104453087,0.7710987136513,2.22298211109061
9.13237254170235,1.82310936167836,0.565952003002167,1.0330954901129,2.17055654292466
9.14234354172368,1.62295112997294,0.0882748299837113,1.01260034143925,1.91497317667166
9.1523155416362,1.87573137894273,-0.00709910452365875,0.776278835088015,2.03003138720588
9.16228654165752,1.92428709626198,0.249090802073479,0.40344209253788,1.98184070463529
9.17225754167885,1.93197779282928,0.571739577054978,0.0320996059477329,2.01505700183853
9.18222854170017,1.81803470939398,0.68535565495491,-0.176610471010208,1.9509366562783
9.19219954172149,1.38432143524289,0.685914064049721,-0.548324401974678,1.63935462580097
9.2021705416264,0.936067743748427,0.679648772478104,-0.979480103999376,1.51575939678693
9.21214154164773,0.673585063666105,0.832342962026596,-1.17019215881825,1.58614669340165
9.22211354167666,0.365745824128389,0.918915082812309,-1.09568357482553,1.47604113541248
9.23208454169799,0.149963247478008,0.84486126601696,-0.937343898564577,1.27078445008828
9.24205554171931,0.0681754647195339,0.805297250747681,-0.671055411994457,1.05046033814635
9.25202637503389,0.167303750216961,0.68533109664917,-0.522161620259285,0.877679904374491
9.26199737505522,0.318856270909309,0.414837146401405,-0.569211533367634,0.773150017300255
9.27196837496012,0.463544745147228,-0.0465292185544968,-0.71613086655736,0.854331385920648
9.28194037498906,0.608807708323002,-0.524250830411911,-0.872644603550434,1.18616793204284
9.29191137501039,0.894511435925961,-0.966762263774872,-1.28570361167192,1.84060146711005
9.30188237503171,1.24843287438154,-1.55760001659393,-1.99233056008816,2.82029847962785
9.31185337505303,1.6110649099946,-2.20475113391876,-2.95653846770525,4.02462140054849
9.32182437507436,2.15557838916779,-2.54791369557381,-4.44266299724579,5.55658500331244
9.33179537497927,2.83540637880564,-2.45533765375614,-6.38246392607689,7.40297629974575
9.3417673750082,3.3726535230875,-1.85788611531258,-8.30532605588436,9.15450563923675
9.35173837502953,3.1922926479578,-1.59626122176647,-8.8747361022234,9.56554876222102
9.36170937505085,2.64925763726234,-1.72450294017792,-7.61592763602734,8.24589777868244
9.37168037507217,2.22776986777782,-1.89009199440479,-5.39036099910736,6.13118243341279
9.38165137497708,2.04443217515945,-1.95033351838589,-3.30975268542767,4.35177740589547
9.39162237499841,2.97351381182671,-1.83404000043869,-1.52005533725023,3.8099941391866
9.40159337501973,4.32128474056721,-1.55445012152195,0.22690938949585,4.59796747056784
9.41156537504867,5.57599196970463,-1.5717502784729,1.89639353871346,6.0957685190437
9.42153637506999,6.55469307839871,-1.78075140058994,3.43243691772223,7.61030223426464
9.4315073749749,7.03147387325764,-2.0819104886055,4.0516579324007,8.37806111902127
9.44147837499622,7.10877932667732,-2.7039407980442,2.98502464056015,8.17045968471016
9.45144937501755,6.63830533862114,-3.43831950902939,1.44942974299192,7.61511558643778
9.46142037503887,5.51860564112663,-4.04644806325436,0.582972078323364,6.86794049151522
9.47139237506781,3.90462443232536,-4.44427682876587,0.113164672851563,5.91696668330987
9.48136337497272,1.88673920094967,-4.61209484159947,-1.38266126453877,5.17135918427298
9.49133437499404,-0.371214871108532,-4.5422744089365,-4.28480483919382,6.25536647979879
9.50130537501536,-2.1996593785286,-4.76052699565888,-6.09642632246018,8.04161255987448
9.51127637503669,-3.39967847675085,-5.45148954570294,-5.95768826723099,8.76188344488176
9.52124737505801,-3.70761741131544,-5.84405055463314,-5.37368590950966,8.76218317589058
9.53121937497053,-3.65226503670216,-4.9981508231163,-5.75389818370342,8.45150257985885
9.54119037499186,-3.36426949292421,-3.20033432364464,-6.96648499488831,8.37211814226976
9.55116137501318,-2.73776255518198,-1.60485955238342,-7.3489361679554,8.00485982338953
9.5611323750345,-2.0395219758153,-0.494124221205711,-6.30487137436867,6.644938802062
9.57110337505583,-1.53042157351971,0.212580202817917,-5.07158834338188,5.30173451429357
9.58107437496074,-1.57982645273209,0.473356665372849,-3.79925936043263,4.14177375543859
9.59104537498206,-2.14830240637064,0.20412162065506,-2.28854129567742,3.14551905530035
9.601017375011,-2.65561414539814,-0.754734622836113,-0.62929605960846,2.83159396290941
9.61098837503232,-3.15898369163275,-1.75173459291458,0.781139479279518,3.69566380155235
9.62095937505364,-3.89495079874992,-2.55052915513516,2.20692571341991,5.15231615881936
9.63093037507497,-4.04586918890476,-3.32835677146912,3.59967459440231,6.35646705942056
9.64090137497988,-3.94295263856649,-3.67160938024521,4.90586597263813,7.28663927284532
9.6508723750012,-4.09747262120247,-4.00405691921711,5.44855015039444,7.90622871128818
9.66084437503014,-4.17311366468668,-4.2527185356617,5.05656801581383,7.81468954600928
9.67081537505146,-3.88032983601093,-4.10921909272671,4.28375438690186,7.09176937270011
9.68078637507279,-2.57023310244083,-3.57581853926182,3.20482615470886,5.44641965960365
9.69075737497769,-0.310596201717854,-2.49334864854813,2.17065368056297,3.32039077288802
9.70072837499902,1.76196663558483,-1.71069415569305,1.07108828544617,2.67922209502246
9.71069937502034,2.66498226195574,-1.43540022611618,-0.458763184547424,3.06153032406494
9.72067137504928,3.15645944863558,-1.58764184117317,-1.14671500325203,3.71467335918084
9.7306423750706,3.24450477540493,-1.76250984191895,-0.199375874251127,3.69770238387569
9.74061337497551,3.07104887723923,-1.66699674367905,1.37053940176964,3.75347806729065
9.75058437499683,2.66091581583023,-1.35373742759228,2.73335697054863,4.04775472703651
9.76055537501816,2.08042120277882,-0.788218703269959,3.8896833345294,4.48096837168842
9.77052637503948,1.40267935350537,-0.04901486992836,4.49859980106354,4.71246347427259
9.7804973750608,0.901121859401465,0.632525476813316,4.70845987915993,4.83546311308108
9.79046937497333,0.224471539109945,1.27815573334694,4.52195211857557,4.70447877168642
9.80044037499465,-0.527037467211485,1.89754134714603,4.55863871902227,4.96584520767034
9.81041137501597,-1.29786479696631,2.51094642877579,4.60281267911196,5.40140625748333
9.8203823750373,-1.80312460184097,3.04240629136562,4.77757952302694,5.94413664633912
9.83035337505862,-1.99597600668669,3.5197735619545,4.90924507856369,6.3618718462497
9.84032437496353,-1.93970240324736,4.13164784252644,4.96523567676544,6.74436984703844
9.85029637499247,-1.6472316929698,4.68716022670269,5.35190152287483,7.30244432718646
9.86026737501379,-1.06785638317466,4.96493629932404,5.462427932024,7.45848701976402
9.87023837503512,-0.623694280833006,5.2086821615696,5.34812188267708,7.49144659516215
9.88020937505644,-0.0764913748204708,5.4950396078825,5.15998479545116,7.53835222790144
9.89018037496135,0.233148222416639,5.80845504462719,4.94568960428238,7.63232295968782
9.90015137498267,0.222621480077505,5.96804894864559,4.92085063219071,7.73834216878223
9.91012337501161,0.263002205193043,6.01202819645405,4.81606268048286,7.70766585531799
9.92009437503293,0.0143117912113667,5.77705198824406,5.05329708337784,7.67530754531161
9.93006537505426,-0.41997874930501,5.52995684087277,5.01342725872994,7.4760455917791
9.94003637495916,-0.719719010442495,5.49356844842434,4.85407747596502,7.36609515918622
9.95000737498049,-0.743828396201134,5.47701088786125,4.58575108855963,7.18192467204799
9.95997837500181,-0.678580924719572,5.39997382164002,3.9325194516778,6.71452891747552
9.96995037503075,-0.528946290761233,5.18359468281269,2.94332317560911,5.98436206543954
9.97992137505207,-0.135882275104523,4.72032446444035,1.73019783586264,5.02926551232935
9.9898923750734,-0.151751326024532,4.00397622764111,0.13720930069685,4.00919948227362
9.9998633749783,-0.722267519384623,3.14021676063538,-2.05969677016139,3.82426234172639
10.0098343749996,-2.26704824656248,1.56196847140789,-5.37730358183384,6.04107995884158
10.019805375021,-2.96089902877808,-1.39465565800667,-10.4015815186501,10.9043516795888
10.0297763750423,-1.40691098347306,-5.57734618484974,-13.7833795022964,14.9354524365819
10.0397483750712,1.67334915876389,-10.9969871163368,-18.2231516361237,21.349873034685
10.0497193749761,4.39081047356129,-18.2341794848442,-21.758167719841,28.725987896415
10.0596903749974,4.18161288499832,-22.894567065239,-13.3568438315392,26.8337914683116
10.0696613750188,1.84877396062017,-18.4411568856239,-5.19446641087532,19.2477716562561
10.0796323750401,0.712047171145678,-8.10999221563339,-3.54954115211964,8.88134152603995
10.0896033750614,-0.340825721919537,-1.55082601726055,-1.53607086092234,2.20923905413355
10.0995753749739,-1.04796912565827,2.88126404464245,0.762523698806763,3.15932970335865
10.1095463749953,-1.30708468660712,6.86712559819222,2.3298382794857,7.36844832837054
10.1195173750166,-1.17175299994648,10.8109287142754,2.54236936569214,11.1674897246264
10.1294883750379,-1.65073563694954,13.6382679820061,0.841767211854458,13.7635698033272
10.1394593750592,-1.60266348436475,13.1729711186886,-0.882699183225632,13.2994306714982
10.1494303749641,-0.040232644379139,7.21542786240578,0.15325786113739,7.21716744126501
10.1594013749855,-0.272925295606256,0.795410193800926,1.3926866081357,1.62688093659761
10.1693733750144,-3.14497551709414,-4.48459864318371,1.34111825913191,5.63924588739875
10.1793443750357,-5.61397723674774,-10.7374701440334,-2.52632869899273,12.3770894076146
10.189315375057,-2.83225999206305,-18.3978500676155,-10.0538885343075,21.1561636038621
10.199286374962,0.279233344942331,-21.5137587833405,1.34749084711075,21.55772529354
10.2092573749833,-1.10266617357731,-10.2088537824154,14.863809299469,18.0656966412057
10.2192283750046,-3.48287967771292,2.7046576666832,14.4766031706333,15.1333295511386
10.2292003750335,-4.20840833544731,8.72281900763512,8.01345760881901,12.5703530183588
10.2391713750549,-4.63584681630135,12.0820525860786,3.0614474567771,13.2981025310977
10.2491422500461,-4.5401831522584,12.473413746357,3.59790727347136,13.7529724166217
10.2591132500675,-4.96543974459171,10.2940547311306,7.53789011120796,13.690980315278
10.2690842499724,-4.53738613665104,6.87165134310722,11.7545722568035,14.3519139516204
10.2790552499937,-3.12354196339846,3.54063876628876,12.4687780737877,13.3327815523928
10.2890272500226,-2.70906003534794,1.08248801708221,11.3759451627731,11.7440587076473
10.298998250044,-3.55952936589718,-1.27725701630116,9.94763760924339,10.6422332617364
10.3089692500653,-3.96928879022598,-4.25062991023064,7.90173193573952,9.81124231268634
10.3189402499702,-2.4773418956995,-6.61932469189167,5.31510031700134,8.84324451910398
10.3289112499915,-0.146125500574708,-7.31646131694317,2.05352342605591,7.60058664351669
10.3388822500128,0.776836513280869,-6.85688186109066,-0.719359625950456,6.93813967117758
10.3488542500418,0.484366387724876,-5.16986600518227,-0.904903399944306,5.2707661181585
10.3588252500631,-0.0744113009423018,-2.82066993355751,0.742908044457436,2.9178122417837
10.368796249968,-0.0911062710732222,-1.33164898574352,1.87080495357513,2.29815155030774
10.3787672499893,0.270720383673906,-0.880713468790054,1.84218049407005,2.05975112889323
10.3887382500106,0.602599207833409,-0.506566511392594,1.56553878128529,1.75232620007068
10.398709250032,0.893775271475315,0.214009847044945,1.46851183891296,1.73238606308193
10.4086802500533,0.579972456693649,0.861280247569084,1.36122946500778,1.71205063353316
10.4186522499658,0.215112778097391,1.14172440469265,1.25812083363533,1.71250581184381
10.4286232499871,-0.0905222073197365,1.28797086954117,1.05675493262708,1.66847062258715
10.4385942500085,-0.0508092342317104,1.345642542243,0.702425431609154,1.51879456041584
10.4485652500298,0.274673101454973,1.32338862419128,0.282520357221365,1.38080430023457
10.4585362500511,0.559418031871319,1.08771016538143,-0.0122065012156963,1.22319701476451
10.4685072500724,0.787634420245886,0.830058454871178,-0.290549315214157,1.18058626242669
10.478479249985,1.19407642677426,0.719860659241676,-0.610941503494978,1.52225733776998
10.4884502500063,1.67911758318543,0.974520934224129,-0.688225029855967,2.05980110717608
10.4984212500276,2.05874469727278,1.21957774221897,-0.508293047994375,2.44625456984839
10.5083922500489,2.31311538890004,1.21670149683952,0.0296640944480896,2.61376075670233
10.5183632500703,2.35154153600335,1.08249854207039,0.505764127224684,2.6376785326345
10.5283342499752,2.23450571402907,0.880787728428841,0.403756088018417,2.43553316281905
10.5383062500041,1.90875469878316,0.764526954889298,-0.121819136738777,2.05977811109713
10.5482772500254,1.64412302076817,0.706169988512993,-0.593124598860741,1.88510300776111
10.5582482500467,1.51500378146768,0.558178129792214,-1.00811435759068,1.90344262861273
10.5682192500681,1.18999024629593,0.45537472307682,-1.3905667001009,1.8860325214922
10.578190249973,0.800496686697006,0.278579480051994,-1.78019664600492,1.9716748135953
10.5881612499943,0.770943104624748,-0.115041629076004,-2.06708735838532,2.20917133653896
10.5981322500156,0.838540133535862,-0.742509849071503,-2.21646690756083,2.48338397833093
10.6081042500446,1.0062077267468,-1.25186840593815,-2.33390238672495,2.83314822166287
10.6180752500659,1.36740763306618,-1.3842119461298,-2.59975218594074,3.24723848447874
10.6280462499708,1.75829312235117,-1.5191153973341,-2.93213218957186,3.74121711100123
10.6380172499921,2.01685699850321,-1.67944137275219,-3.33265184372664,4.24202826351
10.6479882500134,2.25494275599718,-1.62489386737347,-3.7367032161355,4.65703745298763
10.6579592500348,1.93743017524481,-1.35968930840492,-4.19512521564961,4.81679003843005
10.6679312500637,1.13034104526043,-0.760484189987183,-4.68114899665117,4.87536285938485
10.6779022499686,0.399985218644142,-0.268166758418083,-5.08355174660683,5.10630981687202
10.6878732499899,-0.189696539640427,-0.29987562417984,-5.260287348032,5.27224175763918
10.6978442500113,-0.246783198416233,-0.847578467130661,-4.83716323524714,4.91705596565573
10.7078152500326,0.604273484945297,-1.64603506028652,-3.61828335821629,4.02076514169198
10.7177862500539,1.9339005035162,-2.12464135587215,-2.13920852422714,3.58193874301453
10.7277582499664,3.44700554788113,-2.34082227408886,-0.929710212349892,4.26915181797761
10.7377292499878,4.87990316569805,-2.07491312563419,0.167155523300171,5.30534262366614
10.7477002500091,6.23848735034466,-1.73193182766438,1.53665587484837,6.65429361794272
10.7576712500304,6.91054117441177,-1.59643196046352,2.74535399526358,7.60533647427512
10.7676422500517,6.70195578932762,-1.93446943759918,3.27363648086786,7.7055226439208
10.777613250073,6.05310781002045,-2.86509473919869,2.66379761606455,7.20726714945864
10.787584249978,5.26499435663223,-4.13034917593002,1.5135412466526,6.86081314392061
10.7975562500069,4.28249431192875,-5.11803160786629,0.103315622806549,6.67418003868163
10.8075272500282,3.22277798384428,-5.58581002950668,-1.62909421473742,6.6514298898342
10.8174982500495,1.42774475902319,-5.55358017683029,-4.54374059826136,7.31616610675899
10.8274692500709,-0.865812716782093,-4.74035410165787,-8.02402995944023,9.35978875080205
10.8374402499758,-2.17005521804094,-3.76542620122433,-8.76624978661537,9.78441155346337
10.8474112499971,-1.74715651541948,-3.59629548847675,-6.16389383554459,7.34707318227303
10.857383250026,-0.827257346212864,-5.07934701383114,-3.9593113937974,6.49309383243707
10.8673542500474,0.981484090983868,-7.31319740116596,-3.98977129429579,8.38835158002225
10.8773252500687,2.49115418851376,-7.79454136312008,-5.13667136192322,9.66157942226537
10.8872962499736,2.41549063324928,-5.99704470634461,-6.17722548723221,8.94188206863198
10.8972672499949,1.48671451359987,-3.49177416980267,-6.53982185482979,7.56122191122301
10.9072382500162,0.537041907012463,-1.75145977377892,-6.4928383076191,6.74633045721445
10.9172092500376,-0.0733810946345329,-0.708068579435349,-5.97215661764145,6.01443268844801
10.9271812500665,-0.241449075937271,-0.610620637536049,-3.40047048211098,3.46328669315203
10.9371522499714,-0.665290349721909,-1.24770109534264,-1.09154652357101,1.78629311308987
10.9471232499927,-1.16124065637589,-2.42187169969082,-0.600565180778503,2.75220292277788
10.9570942500141,-1.4977226279676,-3.63309610962868,-0.923448429107666,4.03674589407689
10.9670652500354,-1.95301227405667,-4.36841388344765,-0.100930543541908,4.78617632085717
10.9770362500567,-2.80333644747734,-4.37575447797775,2.09071054816246,5.60151703429482
10.9870082499692,-3.35115067988634,-3.77071033000946,4.4627668941021,6.7353363407655
10.9969792499905,-3.74250862419605,-3.40008105754852,5.72595317065716,7.63894375634753
11.0069502500119,-4.26673489630222,-3.41283617377281,5.86952278017998,8.01896346739322
11.0169212500332,-4.40622607290745,-3.49426391422749,5.20897452235222,7.66538479675719
11.0268922500545,-3.74327811777592,-3.6657124632597,3.79846940159798,6.47131738714719
11.0368632499594,-2.967297052145,-3.96290480017662,2.03215185284615,5.35155186875334
11.0468352499884,-1.42633002519608,-3.6501746571064,1.25478675127029,4.11493404070115
11.0568062500097,0.0486817248165607,-2.81938939332962,0.0668593295663595,2.82060217533433
11.066777250031,1.3794689771533,-2.20785366654396,-0.917190592736006,2.76021576243659
11.0767482500523,2.40076602861285,-1.97031813204288,-0.117314953431487,3.10798871682269
11.0867192500737,2.68240725696087,-1.69026339948177,1.78314583539963,3.63756898520524
11.0966902499786,2.8021863001585,-1.28648041427135,3.68252028465271,4.80294030401987
11.1066622500075,2.87490695178509,-0.822973383665085,4.82795796364546,5.67904510198422
11.1166332500288,2.52751334488392,-0.345330709218979,5.29010697841644,5.87305787902574
11.1266042500502,1.86163725033402,0.261394513249397,5.42089398980141,5.73760507459804
11.1365752500715,1.37607569172978,0.894744447469711,5.64459852039814,5.87840491903445
11.1465462499764,0.777278708964586,1.44168832182884,5.84967148303986,6.07464269469382
11.1565172499977,0.220276454240084,1.97220853686333,5.96246193408966,6.28403377971804
11.166488250019,-0.261753532290459,2.72285127818584,6.09838163137436,6.68376334984034
11.176460250048,-0.960678382068873,3.37431881010532,6.30709448575974,7.2172273927254
11.1864312500693,-1.32056149542332,3.88164195120335,6.55546315670013,7.73208407218838
11.1964022499742,-1.80802325293422,4.28653590738773,6.72960259437561,8.18113007149392
11.2063732499955,-2.18694767788053,4.76814533293247,6.7744595092535,8.56803663065629
11.2163442500168,-2.26899200722575,5.23719435453415,6.65485354363918,8.76718912327695
11.2263152500382,-2.00795022726059,5.8380162280798,6.41142635464668,8.90060028849386
11.2362872500671,-1.55382023021579,6.43221905350685,6.27938336133957,9.12241495760814
11.2462591666263,-1.18565848276019,6.80530240237713,6.26550265610218,9.32600934800972
11.2562301666476,-0.805134844332934,7.17822085976601,6.28887865483761,9.57732173232219
11.2662011666689,-0.366167846918106,7.35673752307892,6.23446680486202,9.65009026986382
11.2761721666902,-0.0634535457193852,7.1970833927393,6.02539376199246,9.38655451705074
11.2861431667116,0.116862744390965,6.75025671422482,5.66278160691261,8.81173752086112
11.2961151667405,0.0935972580313683,6.35878679573536,5.24740944027901,8.24489149681538
11.3060861666454,0.0333313219249249,6.14914774239063,4.78030023247004,7.78873540745365
11.3160571666667,-0.29527503490448,6.06260076463223,4.08644331067801,7.31719442880549
11.326028166688,-0.601116865575314,5.96854830086231,3.0848003590107,6.74543575766296
11.3359991667094,-0.920270905941725,5.37787719368935,1.69280840009451,5.71262303413741
11.3459701667307,-1.25928954586387,4.64196475803852,-0.473398765325546,4.8329859679297
11.3559421666432,-2.71918682813644,3.46771287739277,-3.40492138266563,5.56888671356134
11.3659131666645,-4.30428249925375,1.33221675038338,-7.05145205497742,8.36807178428994
11.3758841666859,-3.73857344806194,-2.66614088773727,-10.5398553049564,11.4966859794132
11.3858551667072,-0.104313596338034,-8.46873175978661,-15.0045131886005,17.2297914953283
11.3958261667285,4.14388957321644,-16.865284320116,-22.1321883773804,28.1326038319459
11.4057971666334,5.30099917173386,-26.2842096734047,-18.2189439797401,32.4174365135668
11.4157681666547,4.0612061432004,-27.5135329699516,-7.98607685208321,28.9355372390692
11.4257401666837,4.00539388507605,-16.6728910446167,-4.19622332274914,17.6532367042038
11.435711166705,2.75929229557514,-5.88041965126991,-2.45574286580086,6.9443287847274
11.4456821667263,1.36053364634514,0.188896640539169,0.0483664137125015,1.37443554000164
11.4556531666312,0.336256122887135,5.26810682952404,1.56136796236038,5.50489669851691
11.4656241666526,-0.392295399159193,10.0941816973686,1.72201231867075,10.2475229321699
11.4755951666739,-0.589286340326071,14.0805326628685,1.03127488642931,14.1305409079901
11.4855671667028,-0.638179661259055,15.8815604531765,-0.396573075950146,15.8993240709319
11.4955381667241,0.159968856722116,13.3314598989487,-1.07268691420555,13.3755026181563
11.5055091666291,1.86203749224544,6.14772862315178,0.69955854177475,6.46151166522335
11.5154801666504,0.920551572293043,0.209236180186272,1.22042588084936,1.54293042843709
11.5254511666717,-1.50824425399303,-5.29011457979679,1.27387410968542,5.64649167575836
11.535422166693,-3.6272541564703,-12.1532108616829,-1.32415168583393,12.7518972961381
11.5453931667143,-3.66695265769959,-22.4074238348007,-7.22384902238846,23.8269423007751
11.5553651666269,-3.22082033604383,-26.3856775760651,1.89648650944233,26.6490961547598
11.5653361666482,-1.87685901448131,-14.1981622695923,11.4672400796413,18.3468800246267
11.5753071666695,-2.80862817764282,0.512872733473778,11.1038882517815,11.4650671602499
11.5852781666908,-4.19691446363926,8.41146997690201,8.4889806675911,12.6660850684876
11.5952491667122,-4.5240968772769,13.3042095351219,4.53160821050406,14.7649895659605
11.6052201667335,-4.26525759726763,15.0987001383305,2.40399354547262,15.8726920591607
11.615192166646,-4.62494468271732,13.9709593498707,5.32092648267746,15.6489640905714
11.6251631666673,-5.31466002166271,11.0615918326378,10.470944699049,16.1321141797435
11.6351341666887,-4.65040345966816,7.02583598792553,12.3971800875664,14.9892861000941
11.64510516671,-2.73716964751482,3.80643506348133,11.44672336936,12.3696613319213
11.6550761667313,-2.94342053174973,1.15899532556534,10.0953183960915,10.5793406273676
11.6650471666362,-4.06820087492466,-1.66031454563141,9.19708783864975,10.1928076338667
11.6750191666652,-4.59364804565907,-4.43985165596008,8.63410505175591,10.7406543161521
11.6849901666865,-4.46871526658535,-6.47456400454044,6.86330736637116,10.4400375089359
11.6949611667078,-2.93258622586727,-7.32156593620777,3.3068717622757,8.55223892220749
11.7049321667291,0.211407105177641,-7.75348396897316,-2.58889332175255,8.17701505762698
11.714903166634,2.69746793031693,-7.20620387971401,-5.13508969008923,9.25066774434982
11.7248741666554,3.01209315598011,-5.15357858598232,-2.02962234735489,6.30487464546918
11.7348461666843,2.39887313872576,-3.19074605941773,1.18507741570473,4.16411590047673
11.7448171667056,2.17033793091774,-1.58634492874146,2.30873801708221,3.54360384338384
11.7547881667269,1.94882844507694,-0.252324312329292,2.31303572058678,3.03508387225853
11.7647591666318,1.77844803616405,0.509914627075195,2.04314520299435,2.75632593587184
11.7747301666532,1.50604950159788,1.15789663374424,1.60183069467545,2.48490870860559
11.7847011666745,1.27343571469188,1.87276610970497,1.2714869838953,2.59722362751602
11.7946721666958,1.167002941221,2.30605005204678,1.10014719307423,2.80892978797842
11.8046441667248,1.00366645373404,2.2640816617012,1.13142913900316,2.72278240367977
11.8146151666297,0.583393224030733,1.93311463773251,1.11507681570947,2.30665909084837
11.824586166651,0.31033833950758,1.53658161520958,0.861070332527161,1.78852874249391
11.8345571666723,0.182040341645479,1.1455595934391,0.267217682227492,1.19031540265671
11.8445281666936,0.0765784983336926,1.03127751767635,-0.497486516386271,1.14755845988686
11.854499166715,0.273716789335012,1.04195570290089,-0.988443300873041,1.46205770290107
11.8644711666275,0.596061362922192,1.00058957576752,-1.24996396780014,1.70847258342121
11.8744421666488,0.918388833403587,0.86593053817749,-1.22274386331439,1.75737767754736
11.8844131666701,1.10415151253343,0.636420891880989,-0.997423893213272,1.61834376354505
11.8943841666915,1.16419832423329,0.463142749071121,-0.623051233291626,1.39930403539437
11.9043551667128,1.2624318395555,0.378980850577355,-0.222298275232315,1.3367038407213
11.9143261667341,1.33473792359233,0.478763585686684,0.0772768020629883,1.42010971399826
11.9242981666466,1.44533040627837,0.599358315467835,0.126209810972214,1.5697577169802
11.9342691666679,1.46437858834863,0.789689862728119,-0.0323292553424835,1.66404925109219
11.9442401666893,1.40916683927178,0.895228596925736,-0.334906585514545,1.70274714584341
11.9542111667106,1.18484177291393,0.789014509320259,-0.667021125555039,1.57204042718259
11.9641821667319,1.07156497970223,0.34929278254509,-0.98020267367363,1.49367139463112
11.9741531666368,1.1497827449441,-0.192761650085449,-1.70507439672947,2.0655353089931
11.9841241666581,1.48905880853534,-0.773886008262634,-2.43397338956595,2.95642049617041
11.9940961666871,1.90405806899071,-1.32217825055122,-3.10482268720865,3.87472790984411
12.0040671667084,2.1227326785028,-1.831497631073,-3.95803640842438,4.8504051178662
12.0140381667297,2.31893863096833,-2.23392757058144,-5.31844317018986,6.21721372636813
12.0240091666346,2.13737659156323,-2.18155055165291,-7.04083292663098,7.67469020901238
12.033980166656,1.29319374874234,-1.53027831673622,-8.1109628534317,8.35474836294956
12.0439511666773,0.417956928312779,-1.09726802408695,-7.42851677298546,7.52074109095205
12.0539231667062,0.168224101960659,-1.24794609367847,-5.23116821408272,5.38059380414813
12.0638941667276,0.825209066569805,-1.72365333974361,-2.86768710225821,3.44609636481866
12.0738651666325,2.28372421324253,-2.15684781968594,-1.16101407676935,3.34893154392424
12.0838361666538,3.70535658538342,-2.17004849374294,-0.0836280477046967,4.29485407672987
12.0938071666751,4.6590894985199,-1.94678133487701,0.96935433447361,5.14166513367087
12.1037781666964,5.15848030686379,-1.8761458003521,1.97664043396711,5.83411943190007
12.1137501667254,5.50402736306191,-2.18546818614006,2.40679845482111,6.39243828347946
12.1237211666303,6.01823150753975,-2.86303418040276,2.53440575033426,7.13016743869497
12.1336921666516,6.01005183756352,-3.80476685285568,2.2078378790617,7.44792064908116
12.1436631666729,5.42046363472939,-4.3177886903286,0.994107352495194,7.00092669709077
12.1536341666942,4.16165282964706,-4.28743579387665,-1.19767670363188,6.09392233684896
12.1636051667156,1.58248167335987,-4.22387012779713,-5.33375059604645,6.98528614473614
12.1735761667369,-1.27690735280514,-3.96019812405109,-10.0863019895554,10.9108729895409
12.1835481666494,-1.70665577620268,-4.01474679887295,-10.2367672204971,11.1275455031265
12.1935191666707,-0.304264836609364,-4.82131172597408,-6.43755931556225,8.04858955290891
12.2034901666921,1.50562762498856,-6.79710226714611,-4.0571478831768,8.05778894741836
12.2134611667134,3.16901312828064,-7.84780481994152,-3.43691880851984,9.13471924010092
12.2234321667347,3.57385972201824,-6.9692863959074,-3.86956365019083,8.73595724713225
12.2334031666396,2.38653083592653,-4.55990317940712,-4.49562035232782,6.83365559482328
12.2433751666686,0.833737815320492,-2.33555393278599,-5.05831165552139,5.63351113623032
12.2533454999793,-0.394138295352459,-0.854582262039185,-5.83910030186176,5.91445248299938
12.2633165000007,-1.08544524639845,-0.584767173528671,-4.79809038609266,4.95396965909971
12.273287500022,-1.22302599146962,-1.32318747997284,-2.26447137862444,2.89386390619469
12.2832585000433,-1.67754365891218,-2.65438564538956,-0.408950462043285,3.16656854693089
12.2932295000646,-2.36448420166969,-4.09056998312473,0.614888958781958,4.76462346449524
12.3032014999771,-2.71783378243446,-4.61856712460518,1.58399142444134,5.58809552406985
12.3131724999985,-2.97427161097527,-4.38537724077702,2.91772377312183,6.04904431923083
12.3231435000198,-3.35495955616236,-3.96679495275021,5.00309288978577,7.21263851059198
12.3331145000411,-3.84422971129417,-3.58803921997547,6.12514959990978,8.07276812119325
12.3430855000624,-4.25483230412006,-3.59244041919708,5.42402926683426,7.77362975637116
12.3530564999674,-4.8104896992445,-3.85610072851181,3.45481333494186,7.06725258882537
12.3630284999963,-5.09456614673138,-4.24458856701851,0.738800375461578,6.67210329067737
12.3729995000176,-3.75700679540634,-3.95540282249451,-1.10467703104019,5.56602397514013
12.3829705000389,-1.86467663303018,-3.26958172917366,-0.444671358279884,3.79010768269049
12.3929415000603,-0.862470886856318,-2.43255397796631,1.05142651118338,2.78687505906054
12.4029124999652,0.175471871942282,-1.83667943358421,2.52511657118797,3.12736237389949
12.4128834999865,1.65307847008109,-1.53953679800034,2.94667392253876,3.71291384042408
12.4228545000078,2.55892809569836,-1.45664257586002,2.23553906321526,3.69696571473471
12.4328265000368,2.40371404856443,-1.09234057545662,2.14150662615895,3.39957347176637
12.4427975000581,2.00222668021917,-0.333271411657333,3.09245787262917,3.69909140287121
12.452768499963,1.95303668618202,0.28962019264698,4.29452261924744,4.72664327835194
12.4627394999843,1.70871501937509,0.865187357068062,4.82824009180069,5.19424282878072
12.4727105000056,0.913927700221539,1.48869116485119,5.06942253470421,5.36195021059549
12.482681500027,0.241460843458772,2.05348717331886,5.21691971898079,5.61171669493387
12.4926535000559,0.299800779819489,2.36470522642136,5.71881898283959,6.19569220296903
12.5026244999608,0.0267491112649441,2.95643526434898,6.0805499625206,6.76123604335398
12.5125954999821,-0.711039695888758,3.60126445233822,6.23633966803551,7.23647811852684
12.5225665000035,-1.47489407479763,4.10055293440819,6.15341094732285,7.54017991737528
12.5325375000248,-1.80147583320737,4.52593085646629,5.98132037401199,7.71398461961877
12.5425085000461,-2.29801773190498,4.86495709776878,5.84113454818726,7.94150778311697
12.552480500075,-2.58433307826519,5.20660815417767,5.85735121607781,8.25203666975936
12.5624514999799,-2.54207291185856,5.58488909304142,5.97363245487213,8.56372615026191
12.5724225000013,-2.30535657227039,5.96074168324471,6.12430584669113,8.85167963967836
12.5823935000226,-1.80939486354589,6.33225797832012,6.18812586665154,9.03683034131697
12.5923645000439,-1.32109081462026,6.63278673648834,6.01487812936306,9.05085077455704
12.6023355000652,-0.855281735211611,6.61442238628864,6.04279390633106,8.99985825139567
12.6123064999701,-0.662480616420508,6.36245241522789,5.99888599455357,8.76962453465501
12.6222784999991,-0.687311914041638,6.18794752657414,5.90265661239624,8.57930342992271
12.6322495000204,-0.688132059127092,5.97151225447655,5.64095628976822,8.24335321330087
12.6422205000417,-0.444481287226081,5.79116541266441,4.86073219209909,7.57376246622795
12.6521915000631,-0.37597903624177,5.59375990390778,4.1049254822731,6.94851950513739
12.662162499968,-0.356644340604544,5.32295371234417,3.13083197951317,6.18572067696127
12.6721334999893,-0.265080524906516,4.91025898575783,2.01778378218412,5.31529513607151
12.6821055000182,-0.208190771117806,4.18018499493599,0.478673830926418,4.21264983418755
12.6920765000395,-1.00731241196394,3.23027031362057,-2.14157664656639,4.00445690793065
12.7020475000609,-2.87940346062183,1.46557244360447,-6.38719549298286,7.15787210992725
12.7120184999658,-2.77085691869259,-2.02743782758713,-11.4334443426132,11.9378306967486
12.7219894999871,1.20669347561896,-7.3488268250227,-14.6122784543037,16.4006111616118
12.7319605000084,6.53139660179615,-14.6439551603794,-22.0291230154037,27.246776417348
12.7419325000374,8.2530993103981,-23.0166756391525,-20.9620365643501,32.2069555007983
12.7519035000587,5.30808892071247,-25.4392519283295,-8.74932560563088,27.4204676330757
12.7618744999636,5.44026581525803,-17.6798400521278,-4.09078135997057,18.9448602144374
12.7718454999849,2.59402103751898,-6.96765092968941,-3.28045199543238,8.12640571934659
12.7818165000062,0.672337998747826,-0.160434148907661,-1.12117436528206,1.31712165651529
12.7917875000276,-0.25348140321672,5.08815701365471,0.698373018801212,5.14211235687921
12.8017595000565,-0.700056139826775,9.85653448104858,1.44702449083328,9.98675274811989
12.8117304999614,-1.00127143420279,13.8096697533131,0.16444504648447,13.8468973186716
12.8217014999827,-1.97876238852739,14.8090360915661,-1.24572327464819,14.9924940229622
12.8316725000041,-1.98452832788229,10.5449646019936,-1.28186754584312,10.8063784658206
12.8416435000254,-0.327740384191275,3.58127574563026,-1.06833980172873,3.7515729577908
12.8516145000467,-1.59457415387034,-2.67148641228676,-0.755990897119045,3.20172275810242
12.8615864999592,-3.3982222276926,-9.87855041742325,-0.44479827940464,10.456171295829
12.8715574999806,-2.33056450366974,-17.7532296252251,-1.55558857440948,17.972994988164
12.8815285000019,-0.553785920664668,-23.0577418041229,-2.62827344208956,23.2136588507266
12.8914995000232,-1.34631935745478,-16.7574838829041,5.82142475366593,17.7908636119959
12.9014705000445,-1.86460105776787,-2.33190468549728,11.9030962121487,12.2718464789347
12.9114415000658,-3.73059843063355,6.90067165911198,12.4856905603409,14.7454773665047
12.9214134999784,-5.95286022126675,12.9183120131493,9.44146578490734,17.0722173794324
12.9313844999997,-7.4632644367218,16.0526955914497,2.60283103734255,17.8931294415801
12.941355500021,-6.87772192239761,15.2984562277794,1.05808027714491,16.806705675652
12.9513265000423,-5.72303307116032,12.5153031992912,6.07385080754757,15.0425258961429
12.9612975000637,-4.32256966620684,8.27078947663307,12.5256422460079,15.6199321624959
12.9712684999686,-1.37379673942924,4.20965788543224,13.8563071453571,14.5466760705023
12.9812394999899,-0.75546318590641,0.794775770902634,12.5245827305317,12.5724924229528
12.9912115000188,-2.21296574100852,-2.66581812143326,11.4848413681984,11.9960570555546
13.0011825000402,-2.70076488286257,-5.64247656583786,10.3963155162334,12.1332208857174
13.0111535000615,-2.79269217610359,-7.3849918538332,7.91942561030388,11.1827785576211
13.0211244999664,-1.28030400037766,-8.49771757721901,3.77405493736267,9.38583363510091
13.0310954999877,1.55441942363977,-8.9389952480793,-1.38140118956566,9.17769715322457
13.041066500009,3.00928590774536,-7.7697883450985,-2.68668215632439,8.75463726326197
13.051038500038,2.12934120163322,-5.47491173744202,-0.736763205528259,5.92043685100799
13.0610095000593,1.45990561455488,-3.38938883900642,0.906007354259491,3.80001716198262
13.0709804999642,1.96358520939946,-1.62967630505562,1.43996222376823,2.93001756645103
13.0809514999855,2.09751319885254,-0.110755035281181,1.63073582053185,2.6591591929718
13.0909225000069,1.84055555284023,0.717376177310944,1.9721097189188,2.79132407045801
13.1008935000282,1.3203431019187,1.31789984285831,2.38314851403236,3.02647695225404
13.1108655000571,0.837070143520832,1.9246081084013,2.36527883827686,3.16217437515681
13.120836499962,0.62969732478261,2.34376810133457,1.79371877074242,3.01781289383314
13.1308074999833,0.391663899868727,2.4322832518816,1.08122743047774,2.69043773097643
13.1407785000047,0.171758305281401,2.4210408103466,0.841380418539047,2.56882473701454
13.150749500026,0.284797116816044,1.98515895009041,0.739463522806764,2.13746853928486
13.1607205000473,0.484152525812388,1.51502819359303,0.594575804695487,1.69800897617225
13.1706924999598,0.827676006853581,1.46402585506439,0.0433489179611206,1.6823490735595
13.1806634999812,1.4623852725327,1.54513433754444,-0.529020258039236,2.19223019771997
13.1906345000025,1.82973235666752,1.52800316512585,-0.995895869582892,2.58350977407149
13.2006055000238,1.77170663505793,1.30469916880131,-1.24575865030289,2.5284578178375
13.2105765000451,1.71143338993192,0.941508139371872,-1.22792186513543,2.30721345600164
13.2205475000665,1.76818164110184,0.406335879564285,-1.23394274309278,2.19412621701264
13.230519499979,1.67986368790269,0.223288793563843,-1.11297013700008,2.0274374025156
13.2404905000003,1.71154273286462,0.122749428749084,-0.723118435442448,1.86208115299969
13.250464166631,1.81074323147535,0.0927982360124588,-0.20281096726656,1.82442726667424
13.2604351666523,1.54394121319056,0.506732572317123,0.27300766825676,1.64774559825309
13.2704061666736,1.27628140836954,0.882841855287552,0.368588594198227,1.59504279772373
13.280377166695,0.709444575458765,1.13024807453156,0.142030622363091,1.34199292595714
13.2903491667239,0.234513693451881,1.03100679159164,-0.433569432646036,1.14278350077762
13.3003201666288,-0.287968646585941,0.488306826353073,-1.14640773206949,1.27891367426745
13.3102911666501,-0.707381823956967,-0.536490222215653,-1.84192029297352,2.04472031560929
13.3202621666715,-0.319673711657524,-1.58216533899307,-2.9268585857749,3.342445156313
13.3302331666928,0.92074628457427,-2.29700616359711,-4.99360636711121,5.57316028710946
13.3402041667141,2.36569179788232,-2.81182952821255,-8.30361925363541,9.08036209011735
13.3501751667354,3.49752724528313,-3.40726260781288,-11.3123835897446,12.3212076433936
13.3601471666479,3.93617220729589,-3.65510152101517,-11.574948130846,12.7605894458756
13.3701181666693,3.63641148090363,-3.33195807158947,-8.84680570721626,10.1287414949002
13.3800891666906,3.27221560746431,-2.55283939003944,-5.11829941034317,6.58948956953338
13.3900601667119,3.73136675477028,-1.87681238293648,-1.8552256321907,4.57027184374037
13.4000311667332,4.96433637499809,-1.81351568877697,0.701542794406414,5.33156985229988
13.4100021666382,6.36028075933456,-2.11872338891029,2.43458705484867,7.13227693404524
13.4199741666671,6.9927436709404,-2.52235843956471,3.44272158533335,8.19225781205892
13.4299451666884,7.09593123972416,-3.05036084353924,4.13952462673187,8.76313902491626
13.4399161667097,6.43276518344879,-3.99450607717037,3.90212240874767,8.5183980887719
13.4498871667311,5.06673632383347,-5.05326375424862,2.62196137279272,7.62115299581851
13.459858166636,2.69994364142418,-5.23322526454926,-1.67690338879824,6.12277284502263
13.4698291666573,0.123672996461391,-4.2034855645895,-7.74743443965912,8.81517590854444
13.4798011666862,-0.878344761729241,-3.69329728782177,-9.68784230947495,10.4051056212776
13.4897721667076,0.147765571475029,-4.42757250308991,-5.97224608004093,7.43592335724323
13.4997431667289,1.75191234827042,-5.54389484882355,-1.93779241025448,6.12854031528508
13.5097141666338,3.23680165350437,-6.74819498598576,-1.30154430359602,7.59664650271652
13.5196851666551,2.71069959461689,-6.65027049601078,-2.80914214789867,7.71137274222096
13.5296561666764,0.454858413934708,-5.75104766607285,-3.96402658849955,6.9996394356067
13.5396281667054,-0.51207721978426,-5.113951420784,-4.82404149860144,7.04883668369394
13.5495991667267,-0.689180318713188,-3.95013097286224,-5.00641995549202,6.41426106307
13.5595701666316,-0.722399081736803,-2.51454305112362,-4.26391741544008,5.0025772272841
13.5695411666529,-0.767391944378615,-1.55704160749912,-2.85918466597796,3.34487756396914
13.5795121666742,-1.38077276006341,-1.44191987156868,-1.59988941907883,2.55838083252634
13.5894831666956,-2.4209735673666,-2.13863608181477,-0.967633937448263,3.37211991797881
13.5994541667169,-3.48588426947594,-3.24961933493614,-0.567965345531702,4.7993749172049
13.6094261666294,-4.55716960608959,-4.17447986662388,0.319646229743958,6.18839645527857
13.6193971666507,-5.37456416130066,-4.33920704126358,2.22763830542564,7.25789432898334
13.6293681666721,-5.54359547138214,-3.87597892284393,4.50482299268246,8.12699781937091
13.6393391666934,-5.71219233334065,-3.58643883705139,5.96642459213734,9.00499345911186
13.6493101667147,-6.0532516515255,-3.52817951917648,6.01690243542194,9.23542209071243
13.659281166736,-6.03467329323292,-3.3241912150383,4.78396848320961,8.38772218415341
13.6692531666486,-5.2852385866642,-2.46252037346363,3.19652778625488,6.64947692649484
13.6792241666699,-2.93705408334732,-1.33074617564678,2.72930017232895,4.22448239470595
13.6891951666912,-0.69379282169044,-0.359442964196205,2.94530801296234,3.04719330124617
13.6991661667125,0.32246553786099,0.0457720041275024,2.95639433383942,2.97428084696581
13.7091371667339,2.35539295077324,-0.0740918236970902,0.483870032206178,2.405721463295
13.7191081666388,4.05199268549681,-0.839626253843308,-1.66173556521535,4.45925801654986
13.7290801666677,4.81799079984427,-1.76580884099007,-1.03512206196785,5.23474869439549
13.739051166689,4.71948685079813,-2.17622139930725,1.19018071934581,5.33160631126884
13.7490221667103,3.99509138345718,-2.16042923927307,3.00302704811096,5.4448490439833
13.7589931667317,2.63124587416649,-1.70657888531685,4.32088537573814,5.33909325376465
13.7689641666366,1.70170420780778,-0.940691868066788,5.26298291444779,5.6106762123016
