"Time (s)","Linear Acceleration x (m/s^2)","Linear Acceleration y (m/s^2)","Linear Acceleration z (m/s^2)","Absolute acceleration (m/s^2)"
4.674025008E-2,-1.477836101E0,5.009680948E-1,2.488101357E0,2.936940064E0
5.668125011E-2,-7.618205711E-1,1.477834055E-1,3.128975489E0,3.223770793E0
6.662225001E-2,-2.809405857E-1,-8.096639514E-3,3.476177891E0,3.487521455E0
7.656325004E-2,-1.611235356E-1,4.729461908E-2,3.479204410E0,3.483254355E0
8.650325006E-2,-3.260074157E-1,-1.573661149E-2,3.102338498E0,3.119460311E0
9.644425008E-2,-5.473800766E-1,-2.116589740E-1,2.451872594E0,2.521131430E0
1.063852500E-1,-7.040959811E-1,-3.236156121E-1,1.538600659E0,1.722721743E0
1.163262500E-1,-8.812768480E-1,-3.330214432E-1,8.149855024E-1,1.245693997E0
1.262662500E-1,-9.954805711E-1,-2.367400208E-1,3.474801457E-1,1.080634007E0
1.362072501E-1,-9.620017532E-1,3.419685602E-2,2.624335635E-1,9.977415363E-1
1.461482501E-1,-9.199728441E-1,2.668607828E-1,2.812025410E-1,9.983183763E-1
1.560892500E-1,-5.400172627E-1,3.022224042E-1,3.844585222E-1,7.285364650E-1
1.660292500E-1,3.680822253E-2,2.124308065E-1,3.754298365E-1,4.329310048E-1
1.759702500E-1,4.726941758E-1,1.995625466E-1,4.598063278E-1,6.889752194E-1
1.859112501E-1,9.863584761E-1,6.490906388E-2,6.021749192E-1,1.157467435E0
1.958522501E-1,1.506857148E0,-2.560440186E-1,4.105891442E-1,1.582643501E0
2.057922500E-1,1.765644680E0,-5.221690755E-1,3.027881223E-1,1.865969541E0
2.157332500E-1,1.909597867E0,-5.392734969E-1,5.808413529E-1,2.067548451E0
2.256742500E-1,1.998052938E0,-2.740483265E-1,1.033421692E0,2.266115271E0
2.356142501E-1,2.011146608E0,2.694316573E-1,1.426237639E0,2.480213277E0
2.455552501E-1,2.213067775E0,6.768362617E-1,1.207645914E0,2.610399386E0
2.554962500E-1,2.441341027E0,6.506800582E-1,1.586508651E0,2.983377323E0
2.654372500E-1,2.202966271E0,4.219855137E-1,1.328561656E0,2.606953824E0
2.753782501E-1,1.427500053E0,1.044739562E-1,4.782332432E-1,1.509098487E0
2.853182501E-1,5.237196109E-1,-1.545973852E-1,-4.678725618E-1,7.190878364E-1
2.952592501E-1,-2.250872509E-1,-2.406694228E-1,-1.193033722E0,1.237705742E0
3.052002500E-1,-5.308795264E-1,-1.122327729E-1,-1.410746026E0,1.511500452E0
3.151412500E-1,-2.980811868E-1,6.023772329E-2,-1.077486309E0,1.119579262E0
3.250812500E-1,5.960797817E-3,2.749395883E-1,-9.079831284E-1,9.487152733E-1
3.350222501E-1,-8.858941019E-2,3.344885096E-1,-9.714505613E-1,1.031235589E0
3.449632501E-1,-4.115007252E-1,2.077627549E-1,-5.113255602E-1,6.884417460E-1
3.549032500E-1,-5.511950925E-1,-4.252811506E-2,-4.071194065E-1,6.865645503E-1
3.648442500E-1,-8.088766238E-1,-3.153767391E-1,-7.563069391E-1,1.151409600E0
3.747852501E-1,-8.599687171E-1,-5.388808563E-2,-1.070780137E0,1.374416321E0
3.847262501E-1,-1.182427165E0,2.802088067E-1,-1.131730344E0,1.660561516E0
3.946662501E-1,-1.518568244E0,1.324049360E-1,-2.868291997E0,3.248180961E0
4.046072500E-1,-1.469402662E0,2.671138211E-1,-4.958155868E0,5.178204669E0
4.145482500E-1,-1.429511349E0,6.163962248E-1,-5.240036686E0,5.466391083E0
4.244892501E-1,-2.223428018E0,1.022801102E0,-3.749305428E0,4.477392705E0
4.344292501E-1,-2.425207536E0,1.112625297E0,-1.619536648E0,3.121292297E0
4.443702501E-1,-8.110548578E-1,3.560571340E-1,-1.425858740E0,1.678588636E0
4.543112500E-1,-1.108579097E0,4.155724338E-1,2.957012969E-1,1.220281656E0
4.642522500E-1,-1.160984110E0,2.888030443E-1,1.166697278E0,1.671069669E0
4.741922501E-1,5.646224923E-1,-1.196135670E-1,-2.018102163E-1,6.114191097E-1
4.841332501E-1,2.083983911E0,-5.339338195E-1,-2.554416384E0,3.339628322E0
4.940742501E-1,2.214904239E0,-6.429779595E-1,-4.233420385E0,4.820899252E0
5.040152500E-1,1.460180726E0,-1.979770741E-1,-4.180700135E0,4.432784259E0
5.139552500E-1,-6.538415015E-2,8.897368920E-1,-2.561483329E0,2.712398140E0
5.238962501E-1,-4.323275425E0,3.486683876E0,-1.197162441E0,5.681625891E0
5.338372501E-1,-7.651057123E0,6.412125097E0,-1.114475210E0,1.004470400E1
5.437782500E-1,-5.167124830E0,6.484710678E0,-4.587719554E-1,8.304283431E0
5.537182500E-1,2.057810605E-1,2.280104494E0,-5.347804964E-1,2.351002452E0
5.636592500E-1,1.343836045E0,7.842235932E-1,-2.468045408E-1,1.575377555E0
5.736002501E-1,9.570722580E-2,1.706157886E0,2.333389878E-1,1.724697564E0
5.835412501E-1,3.176815653E-1,1.694660506E0,-3.963827491E-3,1.724184305E0
5.934812501E-1,3.656644017E-1,1.824202645E0,2.583194625E-1,1.878338279E0
6.034222500E-1,5.958029160E-1,2.228608066E0,2.601853091E-1,2.321501975E0
6.133632500E-1,7.595442501E-1,2.243006835E0,2.605799961E-1,2.382412446E0
6.233042501E-1,6.379344437E-1,2.027349535E0,4.951533312E-1,2.182265637E0
6.332442501E-1,-5.119895115E-1,1.493093534E0,5.745620281E-1,1.679756853E0
6.431852500E-1,-1.861398538E0,8.137777600E-1,6.102598643E-1,2.121192085E0
6.531262500E-1,-1.979582461E0,1.360690936E-1,8.066631603E-1,2.141954008E0
6.630672500E-1,-1.507444940E0,-3.134591447E-1,9.387166786E-1,1.803284748E0
6.730072501E-1,-1.369766400E0,-2.166339312E-1,2.103008997E0,2.519094498E0
6.829482501E-1,-2.697469392E0,-5.723117271E-1,-3.234410727E-1,2.776417829E0
6.928892500E-1,-4.550240656E0,-2.018948401E0,-2.660734552E0,5.644497411E0
7.028302500E-1,-5.273572807E0,-2.402770016E0,-3.867698096E0,6.967277981E0
7.127702500E-1,-4.322222634E0,-2.201109780E0,-4.510730435E0,6.623683403E0
7.227112501E-1,-2.754871801E0,-2.742078677E0,-2.975263883E0,4.894947322E0
7.326522501E-1,-1.950816498E0,-4.117447879E0,-1.223705292E0,4.717681283E0
7.425932500E-1,-2.671898641E0,-5.513576451E0,-5.752186704E-1,6.153815414E0
7.525332500E-1,-3.509523393E0,-5.790260264E0,2.994891232E-1,6.777430346E0
7.624742500E-1,-5.305428438E0,-4.457568427E0,9.040099454E-1,6.988184397E0
7.724152501E-1,-5.063861248E0,-4.873943976E0,1.350940704E-1,7.029670762E0
7.823562501E-1,-3.479962209E0,-4.887710076E0,-1.243204587E0,6.127430490E0
7.922962500E-1,-2.251953952E0,-4.434675701E0,-1.352765036E0,5.154378567E0
8.022372500E-1,-9.196945167E-1,-4.418028678E0,-1.072234340E0,4.638372762E0
8.121782501E-1,-1.111555696E-3,-4.635886870E0,6.532257897E-1,4.681682629E0
8.221192501E-1,5.084481454E-1,-4.996087925E0,2.278699116E0,5.514697067E0
8.320592501E-1,5.250735337E-1,-5.813576621E0,2.814192973E0,6.480205045E0
8.420002500E-1,1.423627442E-1,-6.002893091E0,2.872778565E0,6.656414148E0
8.519412500E-1,2.399211985E-1,-5.250054721E0,1.979248877E0,5.615875966E0
8.618822501E-1,4.718176782E-1,-4.411483889E0,3.046422744E-1,4.447089941E0
8.718222501E-1,4.131630886E-1,-3.994903980E0,-5.042592001E-1,4.047744914E0
8.817632501E-1,1.167840993E-1,-3.628231811E0,-2.507666141E-1,3.638761945E0
8.917042500E-1,-2.787133813E-1,-3.306155478E0,1.999660045E-2,3.317942896E0
9.016452500E-1,-8.371634066E-1,-3.118793732E0,2.057717049E-1,3.235747040E0
9.115852501E-1,-1.661951181E0,-2.963064837E0,8.721367729E-1,3.507485924E0
9.215262501E-1,-2.591361431E0,-2.997493828E0,1.611727692E0,4.277591550E0
9.314672501E-1,-3.423229600E0,-3.369093446E0,2.207069555E0,5.285872450E0
9.414072500E-1,-3.883756889E0,-3.806272511E0,2.797775161E0,6.115457779E0
9.513482500E-1,-4.007260609E0,-3.886173836E0,3.254940886E0,6.461820551E0
9.612892501E-1,-3.587800654E0,-3.807847751E0,3.077573785E0,6.069882901E0
9.712302501E-1,-3.002352279E0,-3.435795266E0,2.577284845E0,5.240344024E0
9.811702501E-1,-2.153069349E0,-3.010134339E0,2.355826814E0,4.387087455E0
9.911112500E-1,-1.255665588E0,-2.341767184E0,1.837505060E0,3.230633755E0
1.001052250E0,-1.536408538E-1,-1.431476744E0,5.517176874E-1,1.541792330E0
1.010993250E0,1.171321841E0,-4.101853940E-1,-1.031544735E0,1.613794117E0
1.020934250E0,2.338406789E0,5.280170220E-1,-2.284497800E0,3.311476783E0
1.030874250E0,3.482245547E0,1.097918819E0,-3.284105043E0,4.910886450E0
1.040815250E0,4.682197695E0,1.466115650E0,-4.372512782E0,6.572011745E0
1.050756250E0,5.504557706E0,1.553508720E0,-5.534065679E0,7.958607153E0
1.060697250E0,6.025308393E0,1.709034716E0,-6.505290538E0,9.030168651E0
1.070637250E0,6.316868107E0,1.901168375E0,-7.549897953E0,1.002587767E1
1.080578250E0,6.705103930E0,1.843868001E0,-8.063137307E0,1.064765003E1
1.090519250E0,6.255610921E0,2.642010598E0,-1.124522481E1,1.313651282E1
1.100460250E0,6.462664336E0,5.347997922E0,-1.975911929E1,2.146601750E1
1.110400250E0,1.081071821E1,1.438544274E0,-1.755511543E1,2.066695710E1
1.120341250E0,1.296588028E1,-2.016662579E0,-1.185796623E1,1.768593629E1
1.130282250E0,1.033665871E1,-6.982171905E-1,-3.766136053E0,1.102351130E1
1.140223250E0,8.845580131E0,3.008620495E-1,1.293353816E0,8.944695071E0
1.150163250E0,9.486747792E0,-2.047285616E-2,2.410886536E0,9.788318380E0
1.160104250E0,9.686861731E0,-2.945341927E-1,-2.634305430E0,1.004298789E1
1.170045250E0,9.061113762E0,2.754290003E-1,-9.744298931E0,1.330905727E1
1.179986250E0,1.155390400E1,-4.040542960E-2,-5.692750341E0,1.288028481E1
1.189926250E0,1.347496811E1,-8.959665155E-1,5.843578684E-1,1.351735905E1
1.199867250E0,1.486982024E1,-2.073876999E0,6.190131462E-1,1.502649982E1
1.209808250E0,1.445633087E1,-1.672139955E0,-7.091748726E-1,1.456998570E1
1.219749250E0,1.407066256E1,-1.923059766E0,-5.626877949E-1,1.421261135E1
1.229689250E0,8.645048116E0,-1.642902122E0,1.764882934E0,8.975009531E0
1.239630250E0,5.688916322E0,-5.632067353E-1,4.458268046E-1,5.734085131E0
1.249571250E0,1.681375632E0,-1.142575759E0,2.414125016E0,3.156026453E0
1.259512250E0,-1.901013424E0,1.005752667E0,2.514186371E0,3.308553094E0
1.269452250E0,-1.953472888E-1,-1.858841550E-1,5.809661325E0,5.815915938E0
1.279393250E0,-6.338738447E-1,-1.469362609E0,5.409488411E0,5.641222154E0
1.289334250E0,-4.098566635E0,-3.173598515E0,9.358113141E0,1.069786229E1
1.299275250E0,-5.702031042E0,-1.750802547E0,6.153622617E0,8.570037273E0
1.309215250E0,-4.187516234E0,-1.689402105E0,2.000157058E0,4.938623284E0
1.319156250E0,-1.565238234E0,-4.054687375E0,2.679826881E0,5.106068208E0
1.329097250E0,-2.298050476E0,-4.080383549E0,2.389970461E0,5.257615876E0
1.339038250E0,-5.074165211E0,-2.722227965E0,1.694198576E0,6.002331755E0
1.348979250E0,-7.240699528E0,-2.968423811E0,-1.294893096E0,7.931961782E0
1.358919250E0,-7.212582607E0,-4.000846798E0,-4.669096716E-1,8.261121450E0
1.368860250E0,-2.167220196E0,-6.705892135E0,2.645806611E0,7.527690570E0
1.378801250E0,-4.408939766E0,-6.236778794E0,5.348752213E0,9.324446890E0
1.388742250E0,-5.276943142E0,-4.095926033E0,-4.197128472E-1,6.693197880E0
1.398682250E0,-2.480642064E0,-3.972977799E0,-4.223424862E0,6.306778513E0
1.408623250E0,-3.498507823E0,-1.996722404E0,-3.159947605E0,5.119738882E0
1.418564250E0,-3.182174041E0,-7.523735172E-1,-6.544867417E-1,3.334763925E0
1.428505250E0,-1.376612905E0,-1.189129536E0,8.312909018E-1,2.000034176E0
1.438445250E0,-1.415487533E0,-6.584444296E-1,1.770208140E0,2.360252292E0
1.448386250E0,-4.978366184E-1,-5.459808379E-1,1.836811873E0,1.979852073E0
1.458327250E0,1.819320220E-1,6.717550313E-1,7.877070719E-1,1.051112037E0
1.468268250E0,1.300244760E0,3.876853082E0,-2.048313557E0,4.573424830E0
1.478208250E0,1.594364970E0,5.606859421E0,-4.456177082E0,7.337328288E0
1.488149250E0,-9.330478030E-1,3.959680061E0,-2.305802422E0,4.676148971E0
1.498090250E0,-2.993834640E0,4.262883335E0,-3.262606001E-1,5.219354957E0
1.508031250E0,-4.472173310E0,4.252705672E0,-1.577981071E0,6.369918673E0
1.517972250E0,-5.294149743E0,3.906042967E0,-1.325361475E0,6.711317024E0
1.527912250E0,-5.497389019E0,5.425943645E0,-9.779298609E-1,7.785788161E0
1.537853250E0,-5.520666200E0,5.933473778E0,-2.237373919E0,8.407717194E0
1.547794250E0,-6.202753846E0,6.430677143E0,-2.429134819E0,9.258966452E0
1.557735250E0,-6.477632039E0,6.206100208E0,-2.132723962E0,9.220840966E0
1.567675250E0,-5.746083380E0,5.473470984E0,-1.791584245E0,8.135486029E0
1.577616250E0,-5.366982077E0,5.292943463E0,-1.601059739E0,7.706045640E0
1.587557250E0,-5.106213216E0,5.697570786E0,-1.745295054E0,7.847406010E0
1.597498250E0,-4.743927920E0,5.160365449E0,-1.714905905E0,7.216309718E0
1.607438250E0,-4.201371796E0,4.235922409E0,-1.206056056E0,6.086800049E0
1.617379250E0,-2.889662400E0,3.668269451E0,-4.595882267E-1,4.692288449E0
1.627320250E0,-1.667505451E0,3.378425894E0,-1.036607255E0,3.907542777E0
1.637261250E0,-1.289166040E0,3.247540650E0,-1.968030263E0,4.010188582E0
1.647201250E0,-4.111615866E-1,2.212398123E0,-2.987133731E0,3.739883318E0
1.657142250E0,-4.498432571E-1,1.697388232E0,-3.773425192E0,4.161997531E0
1.667083250E0,-7.155097461E-1,1.611285058E0,-3.375804588E0,3.808444610E0
1.677024250E0,-1.085281232E0,1.349998718E0,-2.793915414E0,3.287292994E0
1.686965167E0,-1.308177093E0,1.688758326E0,-1.417317127E0,2.563595098E0
1.696905167E0,-7.143712932E-1,1.613048578E0,1.209043910E0,2.138700361E0
1.706846167E0,8.028805965E-1,-7.231093723E-1,3.512935828E0,3.675353391E0
1.716787167E0,1.901605747E0,-2.502551581E0,4.255070871E0,5.290037518E0
1.726728167E0,3.707592561E0,-3.711188014E0,2.376887316E-1,5.251252708E0
1.736668167E0,4.621292512E0,-1.183917913E0,-5.161085241E0,7.028143921E0
1.746609167E0,5.430865247E0,-1.709006649E-1,-1.135918938E1,1.259185005E1
1.756550167E0,6.236846037E0,-1.432391834E0,-9.114921010E0,1.113695559E1
1.766491167E0,5.809709857E0,-2.546002241E0,-5.004844716E0,8.079809816E0
1.776432167E0,4.483003523E0,-3.238696736E0,-1.995207975E0,5.879398949E0
1.786372167E0,2.541135018E0,-2.807002067E0,-8.149845522E-2,3.787250953E0
1.796313167E0,2.378863674E0,-3.860245820E0,-4.025141029E-1,4.552198125E0
1.806254167E0,3.980639990E0,-5.101588068E0,1.113829093E0,6.565996558E0
1.816195167E0,4.831031553E0,-5.597075860E0,3.426067253E0,8.148868686E0
1.826135167E0,5.817235224E0,-5.553083748E0,4.707997949E0,9.318916753E0
1.836076167E0,5.937974964E0,-5.024434642E0,3.408870592E0,8.492637333E0
1.846017167E0,5.539583112E0,-4.099237896E0,2.135904847E0,7.214764161E0
1.855958167E0,2.618950349E0,-1.475563581E0,7.707308507E-1,3.103258748E0
1.865899167E0,-1.180658090E-1,-1.461498104E0,-2.153061748E-1,1.481982791E0
1.875839167E0,-2.835186816E0,-2.581219436E0,-3.746392930E-1,3.852445023E0
1.885780167E0,-4.716431973E0,-2.571186199E0,-1.144336648E-1,5.372971625E0
1.895721167E0,-5.585991293E0,-2.943351535E0,7.676729031E-1,6.360498304E0
1.905662167E0,-5.505930047E0,-3.974130285E0,1.967040768E0,7.069528031E0
1.915602167E0,-5.402747156E0,-3.189720458E0,3.946254269E0,7.411944157E0
1.925543167E0,-7.068613633E0,-2.014980919E0,3.111494360E0,7.981656717E0
1.935484167E0,-5.063159582E0,-3.036192455E0,2.594637626E0,6.448735844E0
1.945425167E0,-8.090137410E0,-1.772057760E0,3.927174804E0,9.165872242E0
1.955366167E0,-6.491589927E0,-1.660405177E0,4.587493851E0,8.120516299E0
1.965306167E0,-4.714161499E0,-5.102648753E-1,7.381204612E0,8.773019458E0
1.975247167E0,-2.841325808E0,3.351688331E-1,9.699479438E0,1.011263427E1
1.985188167E0,-1.328685617E0,5.026609806E0,9.111165344E0,1.049025956E1
1.995129167E0,7.408673077E0,4.957812636E0,1.277605949E0,9.005588258E0
2.005069167E0,1.829895845E1,-1.870619012E0,1.810613716E0,1.848321990E1
2.015010167E0,1.527103980E1,2.388855397E0,6.942440075E0,1.694428402E1
2.024951167E0,1.001638917E1,2.837187148E0,-4.481159896E-3,1.041046123E1
2.034892167E0,5.287585074E0,3.033764691E0,-3.628177432E0,7.094078911E0
2.044833167E0,4.948724309E0,3.603587551E0,-2.988359892E0,6.812195709E0
2.054773167E0,4.285886866E0,3.202710632E0,-9.377074492E-1,5.431894410E0
2.064714167E0,2.647226899E0,2.021518106E0,-8.778658017E-1,3.444560070E0
2.074655167E0,8.087903774E-1,1.404937987E0,-8.576975854E-1,1.834022292E0
2.084596167E0,7.226439339E-1,1.601493310E0,-4.618726607E-1,1.816678682E0
2.094536167E0,2.414285522E0,2.718326703E0,-6.562704349E-1,3.694423572E0
2.104477167E0,2.792647153E0,3.266872714E0,-8.242795786E-1,4.376159535E0
2.114418167E0,6.937826622E-1,4.152686709E0,-8.340597045E-1,4.292062078E0
2.124359167E0,-1.915363076E0,4.622865998E0,-4.006348443E-1,5.019961556E0
2.134300167E0,-4.556307727E0,3.982447949E0,-3.779839003E-1,6.063225511E0
2.144240167E0,-6.510030876E0,2.570236611E0,-6.382294357E-1,7.028083313E0
2.154181167E0,-6.456704854E0,1.135869588E0,-8.549178922E-1,6.611363089E0
2.164122167E0,-5.104731531E0,1.240393245E0,-9.434739733E-1,5.337321664E0
2.174063167E0,-2.976880931E0,1.620404960E0,-1.413247465E0,3.672165670E0
2.184003167E0,-5.708198100E-1,1.783874398E0,-2.186069280E0,2.878704921E0
2.193944167E0,7.935326529E-1,2.168370928E0,-2.156393491E0,3.159360606E0
2.203885167E0,1.421941690E0,2.507689530E0,-1.769151109E0,3.382354298E0
2.213826167E0,1.726251550E0,2.932092136E0,-1.489830787E0,3.714391536E0
2.223767167E0,1.615858750E0,3.265550074E0,-1.199218907E0,3.835745400E0
2.233707167E0,1.463970599E0,3.602789991E0,-8.628788763E-1,3.983448956E0
2.243648167E0,1.474295612E0,3.725955157E0,-5.082586956E-1,4.039135586E0
2.253589167E0,1.644651609E0,3.606378427E0,-1.244170729E-1,3.965642934E0
2.263530167E0,1.942836803E0,3.689835151E0,1.507680984E-1,4.172796342E0
2.273471167E0,2.186404910E0,3.835517360E0,1.224558803E-1,4.416622611E0
2.283411167E0,2.318926206E0,3.770861773E0,-7.557995835E-2,4.427474403E0
2.293352167E0,2.177255187E0,3.836152368E0,-2.178929464E-1,4.416331336E0
2.303293167E0,1.761167321E0,4.003077511E0,-1.744411540E-1,4.376844709E0
2.313234167E0,1.407513685E0,3.846886686E0,6.623725891E-2,4.096830400E0
2.323174167E0,1.539811325E0,3.254122276E0,5.682394338E-1,3.644616133E0
2.333115167E0,1.709271528E0,3.222920948E0,1.018525910E0,3.787640905E0
2.343056167E0,1.363556949E0,3.737236775E0,1.563128998E0,4.274295091E0
2.352997167E0,1.059684753E0,4.165457028E0,1.905653189E0,4.701646319E0
2.362938167E0,9.396960872E-1,4.550872740E0,2.007272535E0,5.061878550E0
2.372878167E0,9.395969769E-1,4.911870478E0,1.971719125E0,5.375592096E0
2.382819167E0,1.154669409E0,3.246871144E0,-3.284911959E0,4.760890699E0
2.392760167E0,1.645819152E0,1.308236150E0,-3.617718517E0,4.184266934E0
2.402701167E0,1.893766092E0,1.345735513E0,3.059442154E0,3.841554422E0
2.412642167E0,2.147827612E0,4.524967235E-1,3.334775845E0,3.992323468E0
2.422582167E0,2.393430258E0,-1.473929869E0,-5.512170196E-2,2.811408199E0
2.432523167E0,2.215701507E0,-7.181128095E0,-3.264015180E0,8.193395449E0
2.442464167E0,-6.680113515E-1,-2.288057585E1,-5.233370275E0,2.348095302E1
2.452405167E0,6.802785176E-1,-3.124712985E1,-9.134993332E0,3.256215604E1
2.462345167E0,8.102438782E0,-3.181330639E1,-5.805589909E0,3.333827908E1
2.472286167E0,1.426797919E1,-2.178478191E1,2.290411089E0,2.614188088E1
2.482227167E0,1.140581157E1,-1.248341249E1,4.540578132E0,1.750842582E1
2.492168167E0,2.103894996E0,-7.920165283E0,4.423624463E0,9.312563861E0
2.502109167E0,-8.791510343E0,-4.265715727E0,4.874637748E0,1.092012262E1
2.512049167E0,-1.623266119E1,8.750907862E-1,4.829486133E0,1.695844951E1
2.521990167E0,-1.661066030E1,3.672687607E0,4.294823166E0,1.754560275E1
2.531931167E0,-1.227489025E1,2.838236139E0,3.226064411E0,1.300522997E1
2.541872167E0,-5.829104487E0,8.184675193E-1,2.112734671E0,6.253958425E0
2.551813167E0,-2.619920987E0,-6.720286810E-1,5.115682928E-1,2.752691527E0
2.561753167E0,-8.181947467E-1,-2.094453936E0,-3.147006547E-1,2.270510170E0
2.571694167E0,6.603819045E-1,-3.299142328E0,-5.203367043E-1,3.404584357E0
2.581635167E0,1.677617041E0,-3.595738834E0,2.583371504E-1,3.976238773E0
2.591576167E0,2.970783162E0,-3.251300994E0,1.736949323E0,4.734290201E0
2.601516167E0,3.786636976E0,-2.428971389E0,2.430378814E0,5.113243860E0
2.611457167E0,3.684340815E0,-1.349534449E0,2.963879062E0,4.917335617E0
2.621398167E0,3.114825227E0,-4.141232014E-1,3.643843877E0,4.811572759E0
2.631339167E0,2.488029436E0,3.817652947E-1,4.306363816E0,4.988066211E0
2.641280167E0,1.804965890E0,1.609682336E0,4.813781682E0,5.387158172E0
2.651220167E0,1.026447425E0,3.834377738E0,3.696851810E0,5.424275091E0
2.661161167E0,1.980771711E-1,4.901997455E0,8.394584388E-2,4.906715859E0
2.671102167E0,-5.594682448E-1,4.544372390E0,1.282174525E-1,4.580476487E0
2.681043167E0,-1.105735962E0,4.613084775E0,2.784435908E0,5.500571469E0
2.690983250E0,-1.159978243E0,5.515804825E0,4.570473191E0,7.256643686E0
2.700923250E0,-1.062687298E0,6.422724929E0,5.661315125E0,8.627351202E0
2.710864250E0,-1.466084367E0,6.285805943E0,5.557193171E0,8.517226994E0
2.720805250E0,-1.739583786E0,5.268295110E0,4.529391239E0,7.162155409E0
2.730746250E0,-1.195744491E0,3.280208459E0,3.579607243E0,5.000316033E0
2.740687250E0,4.805303219E-1,2.263140845E0,3.012300732E0,3.798245855E0
2.750627250E0,1.259760101E0,2.489753196E0,2.538882086E0,3.772504305E0
2.760568250E0,6.516555199E-1,2.704871090E0,2.573901938E0,3.790244546E0
2.770509250E0,-3.612965316E-2,2.849385025E0,3.402003622E0,4.437784246E0
2.780450250E0,-3.190471825E-1,3.022104174E0,3.554466847E0,4.676445157E0
2.790391250E0,-4.651202774E-1,3.323920489E0,2.662463281E0,4.284097923E0
2.800331250E0,-6.352654821E-1,3.664980977E0,1.510971688E0,4.014807994E0
2.810272250E0,-9.570976934E-1,4.091911334E0,2.584007388E-1,4.210290406E0
2.820213250E0,-1.290385477E0,4.524566116E0,-5.050842422E-1,4.732008380E0
2.830154250E0,-1.515366163E0,4.885536373E0,-9.971742171E-1,5.211444779E0
2.840095250E0,-1.510898598E0,4.328493773E0,-2.201439271E0,5.085765211E0
2.850035250E0,-1.054906408E0,3.277821041E0,-4.076793943E0,5.336402080E0
2.859976250E0,-8.663790196E-2,2.519220239E0,-5.561187404E0,6.105799054E0
2.869917250E0,1.074394301E0,4.516833758E-1,-6.690862452E0,6.791611100E0
2.879858250E0,2.021257905E0,-2.911302361E0,-7.268398374E0,8.086456571E0
2.889798250E0,2.322016167E0,-6.858926632E0,-7.663077829E0,1.054321561E1
2.899739250E0,3.012631685E0,-9.780445833E0,-7.610723029E0,1.275367302E1
2.909680250E0,3.080106799E0,-1.035379106E1,-6.320972267E0,1.251569964E1
2.919621250E0,1.741329473E0,-6.922550186E0,-5.301527760E0,8.891576126E0
2.929562250E0,-1.892661846E-1,-1.045652313E0,-5.647929679E0,5.747027067E0
2.939502250E0,-1.406498609E0,5.239670650E0,-5.357333001E0,7.624526461E0
2.949443250E0,-2.108664424E0,8.635365711E0,-3.589072715E0,9.586315746E0
2.959384250E0,-2.421715579E0,6.925231719E0,-1.580324051E0,7.504729496E0
2.969325250E0,-2.671778773E0,1.121942689E0,3.576040149E-1,2.919766744E0
2.979266250E0,-2.300068350E0,-4.269537467E0,1.432529536E0,5.056817721E0
2.989206250E0,-1.479840746E-2,-7.327416075E0,2.194003367E0,7.648849332E0
2.999147250E0,4.294351003E0,-1.150115978E1,1.419584092E0,1.235853332E1
3.009088250E0,8.969795457E0,-1.550541375E1,-3.858584918E0,1.832385777E1
3.019029250E0,9.108328274E0,-1.239033885E1,-8.055235380E0,1.735998150E1
3.028970250E0,1.594142922E0,-6.861140388E-1,3.500747599E0,3.907336418E0
3.038910250E0,-1.154440111E1,8.579794943E0,1.644217161E1,2.184561936E1
3.048851250E0,-2.075285359E1,9.747449995E0,1.357769083E1,2.664671466E1
3.058792250E0,-1.934142461E1,7.684863385E0,9.271701819E-1,2.083284608E1
3.068733250E0,-8.815222557E0,1.560470415E0,-9.367069906E0,1.295705272E1
3.078674250E0,1.960383420E0,-4.548456670E0,-6.538620837E0,8.202750982E0
3.088614250E0,7.876105928E0,-6.604711915E0,7.206254166E0,1.255330089E1
3.098555250E0,8.377339779E0,-5.940916699E0,1.395100046E1,1.732353102E1
3.108496250E0,5.418646320E0,-3.514969490E0,1.116276387E1,1.289666762E1
3.118437250E0,2.699067436E0,-1.632016945E0,7.242370663E0,7.899390935E0
3.128378250E0,1.139530383E0,-1.408628165E0,3.664378421E0,4.087839529E0
3.138318250E0,-1.377348192E-2,-1.724225197E0,4.232945591E-1,1.775477548E0
3.148259250E0,-6.231605762E-1,-1.268811883E0,-3.642125380E-1,1.459747742E0
3.158200250E0,-8.215538990E-1,-4.610108542E-1,7.155234870E-1,1.182985916E0
3.168141250E0,-9.961959048E-1,-4.516681731E-2,1.731645606E0,1.998259950E0
3.178082250E0,-9.892762367E-1,2.225269014E-1,1.869073301E0,2.126410284E0
3.188022250E0,-1.109116091E0,5.644521922E-1,1.056079068E0,1.632191097E0
3.197963250E0,-1.382765053E0,7.056039780E-1,6.128013566E-1,1.668964250E0
3.207904250E0,-9.513883989E-1,8.881259841E-1,1.291190931E-1,1.307891199E0
3.217845250E0,-2.600894513E-1,1.280054909E0,2.804783633E-1,1.335984732E0
3.227785250E0,7.334791169E-1,1.639848121E0,7.651584542E-1,1.952578023E0
3.237726250E0,1.497096830E0,1.554224419E0,1.311990062E0,2.525515865E0
3.247667250E0,1.832516216E0,1.568559453E0,1.437787206E0,2.808153573E0
3.257608250E0,1.784273471E0,1.854653190E0,9.426262732E-1,2.740787216E0
3.267549250E0,1.267211500E0,2.025052748E0,4.594965716E-1,2.432653020E0
3.277489250E0,6.808307140E-1,2.151364886E0,2.813133457E-1,2.273991761E0
3.287430250E0,6.975523621E-2,2.220888864E0,2.727737796E-1,2.238664485E0
3.297371250E0,-3.095767397E-1,1.997507100E0,2.449749470E-2,2.021502535E0
3.307312250E0,-1.648487967E-1,1.901951902E0,-8.328236032E-1,2.082832523E0
3.317253250E0,3.877747706E-1,2.255838842E0,-2.044729214E0,3.069217443E0
3.327193250E0,1.007178511E0,2.332937304E0,-2.620729072E0,3.650373390E0
3.337134250E0,1.503565312E0,2.234533927E0,-1.725006970E0,3.198358886E0
3.347075250E0,2.920936233E0,1.851160648E0,2.679369628E-1,3.468494549E0
3.357016250E0,2.871978081E0,1.051480232E0,9.014289844E-1,3.188486003E0
3.366957250E0,2.160580682E0,-1.302806425E-1,1.191411704E0,2.470737497E0
3.376897250E0,2.295864495E0,5.378502846E-2,6.588514689E-1,2.389136217E0
3.386838250E0,2.645876777E0,1.749890966E0,-9.007354315E-1,3.297591034E0
3.396779250E0,1.863811099E0,2.920239830E0,-2.284513003E0,4.149770131E0
3.406720250E0,9.357457814E-1,3.179434036E0,-3.711905467E0,4.976209717E0
3.416661250E0,5.670618045E-1,2.791363104E0,-5.579296231E0,6.264328656E0
3.426601250E0,1.094493301E0,1.944467592E0,-6.925857371E0,7.276425642E0
3.436542250E0,2.185729557E0,1.386026922E0,-7.013579054E0,7.475879579E0
3.446483250E0,2.891138530E0,3.639213467E-1,-5.028512490E0,5.811803387E0
3.456424250E0,3.284748237E0,-4.688508010E-1,-2.744604675E0,4.306070932E0
3.466365250E0,3.358050394E0,-1.322375302E0,-1.038961344E0,3.755611743E0
3.476305250E0,3.176712449E0,-1.926632999E0,-3.535694361E-1,3.732080927E0
3.486246250E0,2.739659977E0,-1.381930363E0,-7.699579219E-1,3.163590289E0
3.496187250E0,1.875881506E0,-3.460271126E-1,-1.171410134E0,2.238496792E0
3.506128250E0,1.425501182E0,-4.570417643E-2,-7.796086782E-1,1.625402161E0
3.516069250E0,1.593612287E0,-5.024798924E-1,-2.229754559E-1,1.685765173E0
3.526009250E0,2.224786034E0,-1.741776200E0,4.195815772E-1,2.856484890E0
3.535950250E0,3.544159375E0,-3.530320770E0,9.585938497E-1,5.093440152E0
3.545891250E0,5.118556103E0,-5.630082808E0,9.008220434E-1,7.662175236E0
3.555832250E0,6.080201468E0,-6.764129233E0,-2.159973156E-1,9.097744172E0
3.565773250E0,5.458423174E0,-7.145602167E0,-1.556912384E0,9.125677512E0
3.575713250E0,4.001819482E0,-7.544878703E0,-1.215755490E0,8.626576101E0
3.585654250E0,2.327712086E0,-7.343251505E0,-5.764112100E-2,7.703564676E0
3.595595250E0,1.107804122E0,-6.486794626E0,-1.564861089E-1,6.582569589E0
3.605536250E0,4.610829212E-2,-5.606731952E0,-2.226762393E0,6.032913053E0
3.615477250E0,-1.537063718E0,-4.681484334E0,-4.034744861E0,6.368518395E0
3.625417250E0,-1.773476880E0,-3.557983947E0,-4.339088928E0,5.884909747E0
3.635358250E0,-8.969177844E-1,-3.018740271E0,-3.546614621E0,4.742966329E0
3.645299250E0,1.121759087E-2,-3.571877516E0,-5.674746180E-1,3.616692172E0
3.655240250E0,7.393109105E-1,-4.381782373E0,4.493994534E0,6.320014577E0
3.665181250E0,8.400718117E-1,-3.896359978E0,7.324940364E0,8.339190192E0
3.675121250E0,8.059893418E-1,-1.710305901E0,6.981162676E0,7.232661847E0
3.685062250E0,3.090242509E-1,4.014078462E-1,4.404705212E0,4.433740210E0
3.695004542E0,-1.156249765E0,4.376284236E-1,1.193691607E0,1.718526057E0
3.704945542E0,-1.518397359E0,-1.305160514E0,-1.561641466E0,2.539231887E0
3.714886542E0,-1.650621324E0,-3.788982879E0,-3.072066293E0,5.149614871E0
3.724826542E0,-2.095702901E0,-5.825670417E0,-2.654348223E0,6.736168863E0
3.734767542E0,-2.697712636E0,-6.912193013E0,-8.360933661E-1,7.466934969E0
3.744708542E0,-2.446758034E0,-6.693887801E0,2.347357999E0,7.503655666E0
3.754649542E0,-1.000959412E0,-5.511873742E0,4.944174006E0,7.471782150E0
3.764590542E0,4.600814393E-1,-4.011674672E0,6.138923886E0,7.347897324E0
3.774530542E0,5.929313484E-1,-2.536038001E0,5.969602554E0,6.513003222E0
3.784471542E0,8.462865248E-1,-1.259785536E0,3.489335296E0,3.805091495E0
3.794412542E0,1.164808920E0,-7.105477989E-2,1.294314514E0,1.742721625E0
3.804353542E0,1.060971506E0,1.487393668E0,9.973777002E-1,2.081528942E0
3.814294542E0,8.260018759E-1,4.095551811E0,1.158372597E0,4.335625769E0
3.824234542E0,9.345955610E-1,5.856372392E0,1.791006832E0,6.195019930E0
3.834175542E0,7.765836212E-1,5.046856375E0,4.302023427E0,6.676918972E0
3.844116542E0,8.073734508E-1,3.703689544E0,6.018937266E0,7.113140934E0
3.854057542E0,1.121819971E0,3.200661183E0,5.964964542E0,6.861742785E0
3.863998542E0,9.169595546E-1,3.162361920E0,5.390846318E0,6.316848246E0
3.873939542E0,-2.058181172E-1,3.331238864E0,5.240077032E0,6.212722492E0
3.883879542E0,-1.757430804E0,3.884488961E0,5.138184621E0,6.676732638E0
3.893820542E0,-2.999853764E0,4.518641717E0,4.891295296E0,7.303561819E0
3.903761542E0,-3.670254873E0,4.968451645E0,4.851440674E0,7.854473833E0
3.913702542E0,-4.135315509E0,5.326888888E0,5.178759620E0,8.502713143E0
3.923643542E0,-4.209928612E0,5.362115439E0,5.642836170E0,8.849710783E0
3.933583542E0,-3.486477177E0,5.324447091E0,5.988124194E0,8.738586344E0
3.943524542E0,-2.303050138E0,4.925075830E0,5.748081374E0,7.912069979E0
3.953465542E0,-1.313198097E0,4.530707447E0,4.565678182E0,6.564847026E0
3.963406542E0,-4.627278891E-1,4.227568492E0,2.724715078E0,5.050794463E0
3.973347542E0,-1.197986314E-1,3.982125767E0,7.305759743E-1,4.050360304E0
3.983287542E0,-1.324809498E-1,3.776818916E0,-6.513023481E-1,3.834854244E0
3.993228542E0,-8.760897830E-2,3.279736589E0,-1.202618478E0,3.494372423E0
4.003169542E0,1.911276457E-1,2.776824587E0,-1.330539477E0,3.085063997E0
4.013110542E0,9.703004140E-1,2.477872238E0,-1.269518811E0,2.948391381E0
4.023051542E0,1.116706362E0,2.014786207E0,-1.190600111E0,2.593053255E0
4.032991542E0,7.064059237E-1,9.023645389E-1,-1.386347642E0,1.798674755E0
4.042932542E0,6.711872667E-1,-1.284519843E0,-2.217937775E0,2.649477599E0
4.052873542E0,1.174760881E0,-3.938286853E0,-4.563133474E0,6.141038476E0
4.062814542E0,1.593164829E0,-5.840611222E0,-7.759982564E0,9.842166582E0
4.072755542E0,1.069755924E0,-8.282827139E0,-1.073273741E1,1.359931084E1
4.082695542E0,9.181740213E-1,-9.488362793E0,-1.160031335E1,1.501463759E1
4.092636542E0,6.941611963E-1,-5.496517199E0,-8.914141073E0,1.049549771E1
4.102577542E0,-3.863163288E-1,1.570881967E0,-4.063278981E0,4.373459333E0
4.112518542E0,-1.059120351E0,7.130903437E0,4.199060977E-2,7.209249819E0
4.122459542E0,-1.703490825E0,5.207682872E0,2.527634675E0,6.034134481E0
4.132399542E0,-1.902078202E0,-3.752887432E0,3.453750896E0,5.443386888E0
4.142340542E0,1.604838356E0,-6.578729813E0,4.009129964E0,7.869454566E0
4.152281542E0,4.820826115E0,-6.955368853E0,3.027165816E0,8.987839184E0
4.162222542E0,6.790811248E0,-7.903249873E0,-2.889230876E0,1.081314621E1
4.172163542E0,7.884746944E0,-7.839014116E0,-8.845991775E0,1.420812961E1
4.182103542E0,4.759991975E0,-6.459903281E0,-3.500346773E0,8.754444673E0
4.192044542E0,-5.917093388E0,-3.173296214E0,5.901372564E0,8.939127539E0
4.201985542E0,-1.407888492E1,9.058108878E-1,5.953374192E0,1.531267965E1
4.211926542E0,-1.221523111E1,5.577934415E0,2.240934289E0,1.361422087E1
4.221867542E0,-7.563633648E0,5.055038969E0,1.314381866E0,9.191820963E0
4.231808542E0,-4.388906913E0,5.551434249E-1,1.876772914E0,4.805513987E0
4.241748542E0,-3.565927389E-1,-6.605196065E-1,5.202530306E0,5.256402393E0
4.251689542E0,1.909620233E0,-1.372542658E0,9.591338693E0,9.875439266E0
4.261630542E0,2.637251842E0,-1.650922163E0,1.105175214E1,1.148137041E1
4.271571542E0,3.201176323E0,-1.714823459E0,8.736362329E0,9.461087468E0
4.281512542E0,3.409047178E0,-1.919713989E0,5.241861602E0,6.540949283E0
4.291452542E0,2.471902231E0,-1.606358194E0,2.372822331E0,3.784306159E0
4.301393542E0,1.166727537E0,-1.207894421E0,7.798642015E-1,1.851607477E0
4.311334542E0,1.173163421E-1,-1.117744973E0,4.925586292E-1,1.227082293E0
4.321275542E0,-4.791388308E-1,-7.275555950E-1,4.691797069E-1,9.894648859E-1
4.331216542E0,-9.018178242E-1,-2.932963371E-1,1.706872416E-1,9.635519000E-1
4.341156542E0,-1.257184987E0,1.127740788E-1,-4.662072748E-2,1.263093653E0
4.351097542E0,-1.291875202E0,-3.887813687E-2,4.500885478E-1,1.368587866E0
4.361038542E0,-9.518580034E-1,-4.360993767E-1,1.073047103E0,1.499215265E0
4.370979542E0,-1.957881689E-1,-8.853625900E-1,1.536575768E0,1.784170679E0
4.380920542E0,5.824498489E-1,-1.076582914E0,1.707099434E0,2.100587316E0
4.390860542E0,1.006945207E0,-7.704993010E-1,1.382371827E0,1.875782421E0
4.400801542E0,1.404564350E0,-1.172717571E-1,1.031496496E0,1.746579142E0
4.410742542E0,1.286707871E0,3.508376169E-1,8.724709412E-1,1.593709422E0
4.420683542E0,9.830767263E-1,6.552670527E-1,9.224890472E-1,1.498933221E0
4.430624542E0,3.032675940E-1,1.259453999E0,4.292031705E-1,1.364701788E0
4.440564542E0,7.623573455E-1,1.401446614E0,2.574037886E-1,1.616013009E0
4.450505542E0,4.532109609E-1,1.321213460E0,3.505043256E-1,1.440089742E0
4.460446542E0,1.949797913E-1,1.266111639E0,2.840355170E-1,1.312147848E0
4.470387542E0,3.076725939E-1,9.792355442E-1,3.551107621E-1,1.086125375E0
4.480328542E0,5.187248462E-1,6.526480848E-1,5.975645359E-1,1.025723337E0
4.490269542E0,7.534198033E-1,4.990154171E-1,8.631731375E-1,1.249690222E0
4.500209542E0,9.843451336E-1,5.626208442E-1,8.757971299E-1,1.432654239E0
4.510150542E0,1.084963874E0,5.905617642E-1,7.123490337E-1,1.425956154E0
4.520091542E0,9.024420145E-1,4.822169513E-1,1.816765717E-1,1.039202172E0
4.530032542E0,5.200218317E-1,4.622995806E-1,1.924178338E-1,7.219198227E-1
4.539973542E0,3.704675969E-1,1.196106434E-1,9.693970191E-1,1.044645168E0
4.549913542E0,1.566954027E-1,-2.186800182E-1,4.545298735E-1,5.281778162E-1
4.559854542E0,4.436621654E-1,-3.791919351E-2,-2.166919649E-1,4.952064114E-1
4.569795542E0,7.649064392E-1,-6.768502951E-2,-1.115722421E0,1.354437022E0
4.579736542E0,8.604838568E-1,-8.106930614E-2,-2.063123385E0,2.236846620E0
4.589677542E0,5.916338147E-1,2.518816781E-1,-2.585484395E0,2.664245579E0
4.599617542E0,2.116378875E-1,7.043053114E-1,-2.063564265E0,2.190692594E0
4.609558542E0,4.517061800E-2,1.001818660E0,-1.048515694E0,1.450884618E0
4.619499542E0,5.274479052E-2,1.048857172E0,-2.799892437E-1,1.086865841E0
4.629440542E0,2.069727047E-1,1.033405319E0,-2.938067991E-1,1.094114569E0
4.639381542E0,4.629842895E-1,9.195261168E-1,-5.576056874E-1,1.170814603E0
4.649322542E0,9.530873805E-1,5.395635188E-1,-1.284755888E-1,1.102728581E0
4.659262542E0,1.591480831E0,5.370784521E-2,4.631719851E-1,1.658379949E0
4.669203542E0,1.928605265E0,-2.259083462E-1,7.419637191E-1,2.078716674E0
4.679144542E0,1.849831868E0,-5.427379721E-1,7.347231120E-1,2.063070648E0
4.689084625E0,1.686520889E0,-7.941957271E-1,4.635204792E-1,1.920924464E0
4.699025625E0,1.798100967E0,-1.248892173E0,2.879595286E-1,2.208125775E0
4.708965625E0,2.075647828E0,-2.074930083E0,-2.389115671E-2,2.934999070E0
4.718906625E0,2.281602259E0,-2.884360145E0,-6.119455801E-1,3.728232786E0
4.728847625E0,1.982208737E0,-3.632821875E0,-7.298880494E-1,4.202294947E0
4.738788625E0,1.445579351E0,-4.462119023E0,-3.050086755E-2,4.690536871E0
4.748729625E0,1.000530227E0,-4.991705437E0,5.061116346E-1,5.116085700E0
4.758669625E0,3.323320565E-1,-4.513975055E0,3.584074223E-1,4.540360258E0
4.768610625E0,-4.885377914E-1,-3.607489398E0,-2.717376530E-1,3.650546573E0
4.778551625E0,-1.009734036E0,-2.817652186E0,-5.752221787E-1,3.047885696E0
4.788492625E0,-9.550444436E-1,-2.239521017E0,-4.611348152E-1,2.477944631E0
4.798433625E0,-2.922941244E-1,-2.007249146E0,-6.173373342E-1,2.120280730E0
4.808374625E0,5.130607215E-1,-1.833499718E0,-8.342164099E-1,2.078670137E0
4.818314625E0,8.949745354E-1,-1.163431023E0,-6.739126539E-1,1.615149971E0
4.828255625E0,6.071210424E-1,-4.374360502E-2,-4.353555378E-1,7.483608136E-1
4.838196625E0,1.934735851E-1,7.966433716E-1,1.306143723E-2,8.199044400E-1
4.848137625E0,-5.666803468E-2,1.127220971E0,5.185650710E-1,1.242074119E0
4.858078625E0,-4.372486469E-1,1.401203370E0,9.999709404E-1,1.776090973E0
4.868018625E0,-9.690368307E-1,2.034522314E0,1.413759681E0,2.660268757E0
4.877959625E0,-1.252616557E0,2.461159726E0,1.517160673E0,3.150893833E0
4.887900625E0,-1.319117818E0,2.381000832E0,1.340354905E0,3.034104159E0
4.897841625E0,-1.302133411E0,2.095029302E0,1.322890149E0,2.799060117E0
4.907782625E0,-9.409927804E-1,1.409449114E0,1.359232202E0,2.172447099E0
4.917722625E0,-5.067072831E-1,6.667427981E-1,1.266299627E0,1.518161050E0
4.927663625E0,-3.075020014E-1,2.677925366E-1,1.336912942E0,1.397714755E0
4.937604625E0,-3.360811450E-1,5.382771313E-2,1.724217304E0,1.757490617E0
4.947545625E0,-1.620658144E-1,-6.464295709E-1,1.654797113E0,1.783953476E0
4.957486625E0,5.442335437E-1,-1.396600442E0,9.698563179E-1,1.785302277E0
4.967427625E0,1.023536827E0,-1.529404743E0,9.016473779E-1,2.049310737E0
4.977367625E0,1.215007266E0,-1.646590546E0,1.186275218E0,2.365322806E0
4.987308625E0,1.412016626E0,-1.647843604E0,1.158688931E0,2.460028361E0
4.997249625E0,1.334716727E0,-1.316178423E0,1.169287595E0,2.209304837E0
5.007190625E0,7.567845105E-1,-7.630025858E-1,1.304995915E0,1.690535442E0
5.017131625E0,1.809469123E-1,-2.673791385E-1,1.607336725E0,1.639440373E0
5.027071625E0,-1.654995918E-1,-1.827617419E-1,1.941769102E0,1.957360267E0
5.037012625E0,-2.759606583E-1,-2.435330236E-1,1.958171126E0,1.992459982E0
5.046953625E0,-3.692654094E-1,-7.173013330E-2,1.587178742E0,1.631146380E0
5.056894625E0,-4.011599243E-1,1.407588530E-1,1.108501110E0,1.187230833E0
5.066835625E0,-6.877129599E-2,-4.548280084E-1,5.969051161E-1,7.535872385E-1
5.076775625E0,-2.030697066E-1,-6.827267468E-2,8.483795357E-1,8.750121716E-1
5.086716625E0,-5.507831562E-1,1.157538199E0,1.389139395E0,1.890228829E0
5.096657625E0,-7.838441089E-1,1.931678562E0,1.684268834E0,2.680028947E0
5.106598625E0,-1.059950948E0,2.299645597E0,1.984444713E0,3.217123980E0
5.116539625E0,-1.243903621E0,2.465964968E0,1.965389806E0,3.389843143E0
5.126480625E0,-1.313367227E0,2.348795537E0,2.069585143E0,3.394842649E0
5.136420625E0,-1.351400295E0,2.230650206E0,2.152261848E0,3.381466274E0
5.146361625E0,-1.543976296E0,2.186512499E0,2.255921288E0,3.500554323E0
5.156302625E0,-1.707727278E0,2.110820877E0,2.132544745E0,3.452483790E0
5.166243625E0,-1.647072356E0,2.036166551E0,1.902291333E0,3.236901896E0
5.176184625E0,-1.297529313E0,1.816267973E0,1.446791479E0,2.660003243E0
5.186125625E0,-8.022274625E-1,1.490244770E0,8.819799757E-1,1.908477680E0
5.196065625E0,-2.543886718E-1,1.174926649E0,3.587196636E-1,1.254530201E0
5.206006625E0,1.123983952E-1,8.507628608E-1,3.908504060E-1,9.429713062E-1
5.215947625E0,2.152786928E-1,3.980059361E-1,5.326488939E-1,6.989052046E-1
5.225888625E0,1.490411416E-1,-1.663766742E-2,1.175591478E-1,1.905524261E-1
5.235829625E0,1.653037101E-2,-2.547643554E-1,-8.296602595E-1,8.680520008E-1
5.245769625E0,-1.151781616E-1,-6.084004498E-1,-1.959565980E0,2.055070788E0
5.255710625E0,3.966932362E-1,-5.924679565E-1,-3.267454512E0,3.344344897E0
5.265651625E0,1.391192645E0,-5.224960810E-1,-4.891707232E0,5.112457215E0
5.275592625E0,1.831102067E0,-8.059006834E-1,-5.853817159E0,6.186241672E0
5.285533625E0,2.519342738E0,-8.438169533E-1,-6.281584253E0,6.820367704E0
5.295473625E0,2.951709545E0,-8.440917724E-1,-5.969063441E0,6.712287130E0
5.305414625E0,2.744775121E0,-5.337467086E-1,-4.848836909E0,5.597311442E0
5.315355625E0,2.195529490E0,-1.703305614E-1,-3.440663365E0,4.085036920E0
5.325296625E0,1.289332394E0,2.080287302E-1,-2.459345920E0,2.784607033E0
5.335237625E0,2.056793189E-1,7.369871539E-1,-1.612698330E0,1.785006989E0
5.345178625E0,-4.780176271E-1,1.361629999E0,-8.672727665E-1,1.683656485E0
5.355118625E0,-5.078569919E-1,1.845839682E0,-6.497335401E-1,2.021681609E0
5.365059625E0,1.091355027E-1,1.983542195E0,-9.082029837E-1,2.184303746E0
5.375000625E0,1.271857990E0,1.854316975E0,-1.483272842E0,2.693735792E0
5.384941625E0,2.470004809E0,1.635948613E0,-1.972377814E0,3.559146789E0
5.394882625E0,3.074482655E0,1.620127802E0,-2.198656873E0,4.112341150E0
5.404822625E0,2.748936292E0,1.716059561E0,-1.802430830E0,3.708135387E0
5.414763625E0,1.876593989E0,1.833942937E0,-1.273960064E0,2.916834918E0
5.424704625E0,9.984511028E-1,1.850268363E0,-1.469718412E0,2.565242645E0
5.434645625E0,7.894510040E-1,1.509480940E0,-2.120200688E0,2.719745678E0
5.444586625E0,1.381622507E0,9.360912788E-1,-1.718561000E0,2.395537423E0
5.454527625E0,1.124835015E0,8.960998321E-1,1.241815288E0,1.900093137E0
5.464467625E0,-1.297184912E0,1.612694821E0,3.950355506E0,4.459684059E0
5.474408625E0,-4.468776662E0,2.247076789E0,4.614928987E0,6.805651219E0
5.484349625E0,-7.035185101E0,2.502618240E0,1.944976007E0,7.716207561E0
5.494290625E0,-5.394352893E0,9.334962845E-2,-3.312188635E0,6.330746468E0
5.504231625E0,3.314445661E0,-3.554113090E0,-5.966612288E0,7.695305848E0
5.514171625E0,1.144377754E1,-7.433826045E0,-2.953237422E0,1.396221420E1
5.524112625E0,9.458472996E0,-8.637292954E0,4.137528387E0,1.346048596E1
5.534053625E0,2.272534689E0,-3.660277476E0,8.858541069E0,9.850674849E0
5.543994625E0,-3.419417215E0,1.655099999E0,7.316216319E0,8.243712229E0
5.553935625E0,-5.700163441E0,4.388928255E0,3.140379606E0,7.849620281E0
5.563876625E0,-5.045081745E0,4.062039664E0,1.750185665E-1,6.479478956E0
5.573816625E0,-3.612133842E0,1.182092412E0,-6.368071005E-1,3.853618643E0
5.583757625E0,-2.297758993E0,2.926239073E-2,-2.065774512E-1,2.307211936E0
5.593698625E0,-1.164507642E0,-9.680749637E-1,-2.896321794E-1,1.541795701E0
5.603639625E0,1.330865605E0,-1.626400110E0,5.873615831E-2,2.102339295E0
5.613580625E0,3.141915377E0,-2.166302183E0,5.982112379E-1,3.862946294E0
5.623521625E0,2.881804327E0,-2.511269195E0,1.082238926E0,3.972720761E0
5.633461625E0,2.355491769E0,-1.682715229E0,8.733214188E-1,3.023667031E0
5.643402625E0,1.426430451E0,-7.415316099E-1,8.759476957E-1,1.830807834E0
5.653343625E0,4.748803036E-1,-2.525505996E-1,1.073164924E0,1.200406624E0
5.663284625E0,-4.776020363E-2,1.612860882E-1,1.093425526E0,1.106288218E0
5.673225625E0,-1.551006112E-1,4.287120044E-1,9.837764919E-1,1.084281499E0
5.683165625E0,-7.854710966E-3,6.345240551E-1,1.098860513E0,1.268927461E0
5.693107750E0,1.727327438E-1,9.308404791E-1,1.425108103E0,1.710916042E0
5.703048750E0,2.261268859E-1,1.112053878E0,1.470352835E0,1.857346132E0
5.712989750E0,2.253402892E-1,1.024594735E0,1.389042331E0,1.740692740E0
5.722930750E0,3.269941333E-1,1.021085821E0,1.100192509E0,1.536217749E0
5.732871750E0,5.501725607E-1,8.274763244E-1,7.122962625E-1,1.222609046E0
5.742811750E0,4.395449947E-1,5.088744074E-1,4.894998045E-1,8.317229247E-1
5.752752750E0,8.298394766E-1,3.271739352E-1,1.482362723E-1,9.042401967E-1
5.762693750E0,1.626760591E0,2.146629810E-2,6.418371677E-2,1.628167796E0
5.772634750E0,2.289410192E0,-2.856832623E-1,3.170345709E-2,2.307383597E0
5.782575750E0,2.654920666E0,-4.487644458E-1,2.894152477E-2,2.692736690E0
5.792516750E0,2.643851302E0,-4.240365708E-1,1.364879005E-1,2.681116496E0
5.802456750E0,2.246985719E0,-1.748966521E-1,3.029350336E-1,2.274049976E0
5.812397750E0,1.576276462E0,1.491770893E-1,4.073744912E-1,1.634886927E0
5.822338750E0,9.531397131E-1,3.937456548E-1,4.979266655E-1,1.145182046E0
5.832279750E0,4.875215453E-1,6.789932996E-1,4.894446945E-1,9.686409381E-1
5.842220750E0,2.323752205E-1,8.708264118E-1,3.879277483E-1,9.812363735E-1
5.852160750E0,2.333221771E-1,9.212019289E-1,3.830605260E-1,1.024591430E0
5.862101750E0,5.449005648E-1,9.150892496E-1,4.865105617E-1,1.170896019E0
5.872042750E0,7.280602098E-1,1.020513378E0,5.626284456E-1,1.374070592E0
5.881983750E0,5.635480665E-1,1.112577789E0,5.378361782E-1,1.358191266E0
5.891924750E0,4.649124089E-1,1.142607919E0,3.891615839E-1,1.293500345E0
5.901865750E0,5.258623961E-1,1.267605602E0,1.744634831E-1,1.383398977E0
5.911805750E0,4.573560521E-1,1.195501832E0,-1.177465510E-1,1.285403998E0
5.921746750E0,5.292955888E-1,1.159381242E0,-3.258500525E-1,1.315483539E0
5.931687750E0,4.244238757E-1,1.111070961E0,-4.921647827E-1,1.287183157E0
5.941628750E0,3.652982198E-1,1.160047240E0,-6.163374603E-1,1.363460396E0
5.951569750E0,3.831598556E-1,1.161475714E0,-7.770563686E-1,1.449018257E0
5.961510750E0,6.254955887E-1,1.159233307E0,-8.093224740E-1,1.545984948E0
5.971450750E0,6.592847476E-1,1.014208910E0,-8.814958262E-1,1.496766844E0
5.981391750E0,6.967495394E-1,9.614067990E-1,-8.848731780E-1,1.480798263E0
5.991332750E0,6.800612935E-1,8.943977076E-1,-1.130983654E0,1.594225407E0
6.001273750E0,5.934136706E-1,8.597213799E-1,-1.544778242E0,1.864832554E0
6.011214750E0,3.521278781E-1,9.103658688E-1,-1.958032547E0,2.187841748E0
6.021154750E0,2.090339396E-1,9.764423293E-1,-2.330354004E0,2.535287872E0
6.031095750E0,4.285555914E-1,9.177245897E-1,-2.369071342E0,2.576504870E0
6.041036750E0,1.105725729E0,6.869689018E-1,-1.846834878E0,2.259503203E0
6.050977750E0,2.178400949E0,3.451938844E-1,-9.573113360E-1,2.404378195E0
6.060918750E0,3.098377301E0,-1.600546646E-1,-7.973431371E-2,3.103532980E0
6.070859750E0,3.590797059E0,-3.424334139E-1,1.910016382E-1,3.612141441E0
6.080799750E0,3.656273011E0,-5.754624993E-1,-6.098178148E-1,3.751182105E0
6.090740750E0,3.506400687E0,-8.193229669E-1,-1.843758073E0,4.045439375E0
6.100681750E0,3.256369945E0,-9.657998121E-1,-3.311598651E0,4.743774882E0
6.110622750E0,3.130680829E0,-9.618125957E-1,-4.520037448E0,5.581844180E0
6.120563750E0,3.167038524E0,-8.963337207E-1,-4.843360991E0,5.855910932E0
6.130504750E0,3.420256875E0,-1.064613664E0,-4.390214642E0,5.666175425E0
6.140444750E0,3.877014465E0,-1.244851747E0,-3.670146407E0,5.481867536E0
6.150385750E0,4.381259339E0,-1.424012774E0,-3.523284230E0,5.799722195E0
6.160326750E0,4.999954104E0,-1.385938629E0,-3.603532587E0,6.317104878E0
6.170267750E0,5.667647660E0,-1.399587200E0,-3.264068390E0,6.688439039E0
6.180208750E0,6.457043408E0,-2.033269256E0,-2.051467545E0,7.073620892E0
6.190149750E0,7.527782614E0,-3.139618006E0,-1.651089978E-1,8.157939280E0
6.200089750E0,7.821292959E0,-4.476664556E0,1.363755462E0,9.114437891E0
6.210030750E0,6.368446396E0,-5.242998886E0,-6.088355557E-1,8.271446521E0
6.219971750E0,3.639780062E0,-5.501507213E0,-3.433709564E0,7.436729247E0
6.229912750E0,1.156467867E0,-5.036303321E0,-3.604800264E0,6.300504266E0
6.239853750E0,-3.426468372E-1,-4.316499379E0,-2.049199995E0,4.790489992E0
6.249793750E0,-1.297792438E0,-3.356653202E0,-1.159362531E-1,3.600670374E0
6.259734750E0,-1.689335446E0,-2.462356067E0,7.682580632E-1,3.083386466E0
6.269675750E0,-1.473424670E0,-1.760024775E0,7.134117651E-1,2.403668823E0
6.279616750E0,-1.173304339E0,-1.234602163E0,8.768519676E-1,1.915660446E0
6.289557750E0,-7.279453120E-1,-1.247146779E0,2.879508126E0,3.221311303E0
6.299498750E0,-6.814286649E-2,-1.585290091E0,4.813682864E0,5.068464347E0
6.309438750E0,4.027825632E-1,-1.613503491E0,4.164248993E0,4.484038023E0
6.319379750E0,5.720439246E-1,-1.796038946E0,1.621839867E0,2.486635217E0
6.329320750E0,1.398136505E-1,-2.070612499E0,-1.653158723E0,2.653284331E0
6.339261750E0,-8.821711797E-1,-1.653858050E0,-3.700209281E0,4.147893582E0
6.349202750E0,-1.657913679E0,-1.186515831E0,-2.975533440E0,3.606978907E0
6.359143750E0,-2.105255789E0,-9.176649481E-1,-9.813696317E-1,2.497458158E0
6.369083750E0,-1.214393308E0,-1.025353703E0,1.116994776E0,1.942621593E0
6.379024750E0,2.767876008E-1,-1.665942491E0,2.770876215E0,3.244954661E0
6.388965750E0,1.310929377E0,-2.345751477E0,3.783145896E0,4.640396394E0
6.398906750E0,2.200896796E0,-2.390552258E0,3.164951068E0,4.536033737E0
6.408847750E0,2.158594091E0,-1.699001479E0,2.946362851E0,4.028298465E0
6.418788750E0,1.668923694E0,-1.025834929E0,2.483272727E0,3.162955427E0
6.428728750E0,1.398426527E0,-3.895760053E-1,2.353003194E0,2.764776708E0
6.438669750E0,1.127921760E0,1.805626041E-1,2.825200941E0,3.047387522E0
6.448610750E0,8.175432207E-1,8.659375548E-1,3.599451231E0,3.791341969E0
6.458551750E0,3.281271775E-1,1.419291732E0,4.108448430E0,4.359060101E0
6.468492750E0,-1.806523588E-1,2.020507708E0,3.770649519E0,4.281691776E0
6.478432750E0,-6.905476901E-1,2.747374501E0,3.930030584E0,4.844591123E0
6.488373750E0,-1.276357130E0,2.673033001E0,4.338478771E0,5.253245758E0
6.498314750E0,-1.586082243E0,2.526032830E0,4.279381839E0,5.216282935E0
6.508255750E0,-2.076602240E0,2.555388191E0,4.005298868E0,5.185046258E0
6.518196750E0,-2.522629166E0,2.528299795E0,4.086881559E0,5.427573919E0
6.528137750E0,-2.530446016E0,2.401257341E0,4.371500629E0,5.592782099E0
6.538077750E0,-2.394037199E0,2.317764364E0,4.623219754E0,5.698912760E0
6.548018750E0,-2.212506296E0,2.394668698E0,4.626848536E0,5.660154562E0
6.557959750E0,-2.252001314E0,2.592048479E0,4.259208945E0,5.470931006E0
6.567900750E0,-2.440951603E0,2.892766103E0,3.386880091E0,5.079103976E0
6.577841750E0,-2.559034515E0,3.289891448E0,2.070781483E0,4.654049778E0
6.587782750E0,-2.255369749E0,3.685122296E0,7.285151231E-1,4.381501264E0
6.597722750E0,-1.531971524E0,4.059294981E0,-5.742006701E-1,4.376587586E0
6.607663750E0,-6.887192658E-1,4.293841419E0,-1.887956007E0,4.740863449E0
6.617604750E0,2.489425752E-1,4.116939172E0,-3.039376849E0,5.123375077E0
6.627545750E0,1.470950274E0,3.655089242E0,-3.968357621E0,5.592068873E0
6.637486750E0,2.847544906E0,2.867415499E0,-4.868982029E0,6.327524763E0
6.647427750E0,4.400367163E0,1.641447920E0,-5.568665993E0,7.284752802E0
6.657367750E0,6.158668179E0,1.238802803E-1,-5.709669260E0,8.399098947E0
6.667308750E0,7.009727494E0,-8.785219324E-1,-5.139662213E0,8.736372702E0
6.677249750E0,6.706086262E0,-1.634034235E0,-4.258233629E0,8.110130362E0
6.687190750E0,5.438492939E0,-2.207188838E0,-3.806120483E0,6.995387134E0
6.697131417E0,3.607178911E0,-1.750597309E0,-3.317865112E0,5.204282807E0
6.707072417E0,1.170552932E0,-1.383538347E0,-2.111175218E0,2.782343136E0
6.717012417E0,-1.429776374E0,-9.792852455E-1,-8.749948919E-1,1.941359352E0
6.726953417E0,-3.617061875E0,-3.803438365E-2,-6.274179339E-2,3.617805931E0
6.736894417E0,-4.874019113E0,1.360838871E0,-1.034787601E-1,5.061487192E0
6.746835417E0,-5.259584513E0,1.789418728E0,-7.235052288E-1,5.602562668E0
6.756776417E0,-5.389198573E0,7.798378891E-1,-3.502417856E-1,5.456581136E0
6.766717417E0,-4.763311440E0,1.801573920E-1,1.764301429E0,5.082750445E0
6.776657417E0,-2.939739709E0,-1.584110123E-1,3.333311702E0,4.447261012E0
6.786598417E0,1.341557970E0,-2.387732146E0,2.458396917E0,3.680320365E0
6.796539417E0,5.370444213E0,-5.694124437E0,-2.589292687E0,8.244341136E0
6.806480417E0,5.950195645E0,-8.550122078E0,-7.706449551E0,1.295757618E1
6.816421417E0,6.266831728E0,-8.327765331E0,-3.418341327E0,1.096858755E1
6.826362417E0,5.135966188E-1,-5.082039072E0,6.396309548E0,8.185577466E0
6.836302417E0,-1.007337263E1,-4.209796464E0,1.031264069E1,1.501818166E1
6.846243417E0,-1.460842163E1,-1.270981200E0,4.717511954E0,1.540377534E1
6.856184417E0,-1.144089603E1,2.983728898E-1,-2.621486287E0,1.174118047E1
6.866125417E0,-5.984116513E0,-1.125738702E0,-3.440018125E0,6.993615857E0
6.876066417E0,-2.174895251E-1,-3.020801414E0,1.564804956E0,3.408981875E0
6.886006417E0,3.510817382E0,-4.157346940E0,5.989028174E0,8.091837290E0
6.895947417E0,4.040191543E0,-3.718974751E0,6.970955776E0,8.874015175E0
6.905888417E0,1.906365380E0,-2.164570822E0,5.176224852E0,5.925613852E0
6.915829417E0,-5.596203455E-1,-8.212578106E-1,2.861192600E0,3.028871476E0
6.925770417E0,-2.445392709E0,3.259495282E-1,1.420177877E0,2.846593368E0
6.935711417E0,-3.469527268E0,1.224123368E0,7.638828841E-1,3.757607556E0
6.945652417E0,-3.570327711E0,1.607697206E0,5.973910198E-1,3.960909782E0
6.955592417E0,-2.926103710E0,1.504680376E0,8.392523244E-1,3.395657583E0
6.965533417E0,-1.815619078E0,1.106881431E0,1.197105138E0,2.440229467E0
6.975474417E0,-6.041251118E-1,7.238127923E-1,1.407451412E0,1.694045922E0
6.985415417E0,2.665774852E-1,6.232406831E-1,1.073819812E0,1.269874598E0
6.995356417E0,7.619666053E-1,7.636206365E-1,2.073551309E-1,1.098501586E0
7.005296417E0,1.070550780E0,9.885010421E-1,-4.971618497E-1,1.539604880E0
7.015237417E0,1.273798681E0,1.177949660E0,-5.694356279E-1,1.826029960E0
7.025178417E0,1.388280877E0,1.395031634E0,-2.427857494E-1,1.983023443E0
7.035119417E0,1.575423938E0,1.593513030E0,2.087138776E-1,2.250512352E0
7.045060417E0,1.643297248E0,1.650376033E0,5.023355392E-1,2.382542316E0
7.055001417E0,1.576981636E0,1.701020522E0,5.520777297E-1,2.384351425E0
7.064941417E0,1.406866106E0,1.874010397E0,3.073811102E-1,2.363402284E0
7.074882417E0,1.247047669E0,2.022728480E0,-2.930659568E-1,2.394252712E0
7.084823417E0,1.203192821E0,1.943257218E0,-8.090136679E-1,2.424546286E0
7.094764417E0,1.251339818E0,2.038063973E0,-1.155988687E0,2.656288000E0
7.104705417E0,1.266995445E0,1.977649956E0,-1.187629141E0,2.631889014E0
7.114646417E0,1.301435984E0,1.799482956E0,-7.701777041E-1,2.350542113E0
7.124586417E0,1.269732819E0,1.709748076E0,-2.710160883E-1,2.146837124E0
7.134527417E0,1.179626057E0,1.683501679E0,5.257968342E-1,2.121828892E0
7.144468417E0,9.081114748E-1,1.699590293E0,9.161300540E-1,2.133674739E0
7.154409417E0,4.546879676E-1,1.580589514E0,1.091423732E-1,1.648307137E0
7.164350417E0,-3.365876600E-2,1.686824652E0,-1.408307152E0,2.197689549E0
7.174291417E0,-5.073681647E-1,1.741979683E0,-2.919722351E0,3.437541895E0
7.184231417E0,-4.106069782E-1,1.657021978E0,-3.811516879E0,4.176359760E0
7.194172417E0,5.930289969E-2,1.337129581E0,-3.832749873E0,4.059729540E0
7.204113417E0,6.247498494E-1,9.835133672E-1,-3.209275301E0,3.414243529E0
7.214054417E0,9.118089616E-1,6.601295972E-1,-2.449680473E0,2.695941595E0
7.223995417E0,9.303363030E-1,4.406040716E-1,-1.877017035E0,2.140759336E0
7.233936417E0,8.786934020E-1,3.721951568E-1,-1.646885099E0,1.903381690E0
7.243876417E0,7.473142138E-1,4.780858934E-1,-1.560565724E0,1.795107249E0
7.253817417E0,6.216771376E-1,5.085820466E-1,-1.457014166E0,1.663739295E0
7.263758417E0,8.601230836E-1,2.097940046E-1,-1.384794329E0,1.643618136E0
7.273699417E0,1.388456732E0,-4.892879891E-1,-1.416589733E0,2.043022591E0
7.283640417E0,1.784789488E0,-8.278745198E-1,-1.569893203E0,2.517024911E0
7.293581417E0,1.894645514E0,-8.055352324E-1,-1.552753844E0,2.578684380E0
7.303521417E0,1.793912314E0,-7.994459420E-1,-1.373889856E0,2.396833023E0
7.313462417E0,1.546244578E0,-1.059751119E0,-1.197833555E0,2.224578601E0
7.323403417E0,1.101498265E0,-1.645597689E0,-2.001644444E0,2.815647467E0
7.333344417E0,6.934584340E-1,-2.163066334E0,-4.001806911E0,4.601543123E0
7.343285417E0,5.572203559E-1,-2.576565637E0,-5.625678100E0,6.212683727E0
7.353226417E0,8.589325905E-1,-2.563226969E0,-5.402644245E0,6.041230216E0
7.363166417E0,1.614427059E0,-2.427996658E0,-4.598600053E0,5.445058764E0
7.373107417E0,2.988547003E0,-2.428245165E0,-4.066810407E0,5.600601276E0
7.383048417E0,4.833177481E0,-3.205918999E0,-2.860886498E0,6.467008021E0
7.392989417E0,6.506147740E0,-4.519517630E0,-6.822724181E-1,7.951194481E0
7.402930417E0,7.239257020E0,-5.349532816E0,4.518264864E-1,9.012684990E0
7.412871417E0,6.669868609E0,-5.047847478E0,-4.139290738E-1,8.374917832E0
7.422811417E0,5.625205060E0,-4.647858167E0,-1.533877278E0,7.456426558E0
7.432752417E0,3.993652676E0,-4.925117345E0,-1.472196754E0,6.509485836E0
7.442693417E0,2.260756935E0,-4.216568710E0,-1.950841641E-1,4.788374613E0
7.452634417E0,3.567143245E-1,-2.728995532E0,-3.357717542E-1,2.772616886E0
7.462575417E0,-1.200901224E0,-1.458120167E0,-1.662552275E0,2.516417739E0
7.472516417E0,-1.935695014E0,-1.144718179E0,-7.412538671E-1,2.367858144E0
7.482456417E0,-1.272638885E0,-2.426896797E0,2.140299615E0,3.477113779E0
7.492397417E0,6.346336904E-1,-3.652193701E0,4.294275867E0,5.672925521E0
7.502338417E0,2.189921133E0,-4.196277117E0,4.806932838E0,6.746191483E0
7.512279417E0,2.227524869E0,-4.579841600E0,3.474672818E0,6.165238626E0
7.522220417E0,9.826809429E-1,-4.839408274E0,1.540231593E0,5.172798820E0
7.532161417E0,3.822120219E-1,-5.025941470E0,-1.119624853E0,5.163306450E0
7.542101417E0,2.975022393E-1,-4.533163862E0,-4.040745274E0,6.079942808E0
7.552042417E0,7.743399715E-1,-3.793712692E0,-3.440798728E0,5.179860449E0
7.561983417E0,1.462539200E0,-3.297969961E0,-9.406461136E-1,3.728329638E0
7.571924417E0,1.845301153E0,-3.615508854E0,6.768409395E-1,4.115234414E0
7.581865417E0,1.883221955E0,-4.012243606E0,1.841154600E0,4.799424335E0
7.591806417E0,1.800313991E0,-3.565225723E0,3.774302567E0,5.495209258E0
7.601746417E0,1.584244755E0,-2.567028828E0,4.799203111E0,5.668493535E0
7.611687417E0,1.344279410E0,-1.329158657E0,4.372079503E0,4.763279233E0
7.621628417E0,1.108979266E0,-2.369502282E-1,4.131266312E0,4.284080037E0
7.631569417E0,8.718485051E-1,6.348579311E-1,4.334442730E0,4.466604772E0
7.641510417E0,7.372157800E-1,1.407563387E0,5.088865696E0,5.331160837E0
7.651451417E0,4.880822933E-1,1.938737320E0,5.799464366E0,6.134387798E0
7.661391417E0,-1.519037922E-1,2.961758569E0,6.036900498E0,6.726013396E0
7.671332417E0,-1.018341138E0,4.089880012E0,5.989041622E0,7.323438860E0
7.681273417E0,-2.100512382E0,5.118584754E0,5.815137827E0,8.026698581E0
7.691214417E0,-2.963796032E0,5.959402671E0,5.842253705E0,8.856099337E0
7.701154625E0,-3.653212286E0,6.479860997E0,6.108078654E0,9.625132902E0
7.711095625E0,-4.156224275E0,6.660981426E0,6.184200046E0,9.994358608E0
7.721036625E0,-4.427988240E0,6.558943419E0,6.148937243E0,1.002178866E1
7.730976625E0,-4.576978511E0,6.099818292E0,6.076696063E0,9.751038433E0
7.740917625E0,-4.364292766E0,5.584003825E0,5.935914990E0,9.244632866E0
7.750858625E0,-3.834539998E0,5.135439354E0,5.748302398E0,8.609263314E0
7.760799625E0,-3.041512252E0,4.534035097E0,5.428764342E0,7.699334603E0
7.770740625E0,-2.272399618E0,3.894287140E0,4.698512011E0,6.511934234E0
7.780681625E0,-1.595131540E0,3.226898224E0,3.713975381E0,5.172130114E0
7.790621625E0,-1.128716396E0,2.586467312E0,2.454565237E0,3.740147639E0
7.800562625E0,-8.250394973E-1,2.175325021E0,6.577427638E-1,2.417716829E0
7.810503625E0,-6.989679730E-1,2.296027340E0,-1.562592954E0,2.863912448E0
7.820444625E0,-3.681542923E-1,2.478301424E0,-4.092742808E0,4.798756008E0
7.830385625E0,9.182334436E-1,2.078585762E0,-6.564438633E0,6.946619753E0
7.840326625E0,2.871581933E0,1.086453599E0,-8.145753787E0,8.705151864E0
7.850266625E0,4.833014928E0,-4.945902443E-1,-8.629888040E0,9.903414582E0
7.860207625E0,6.525054127E0,-2.288482093E0,-8.064708454E0,1.062322946E1
7.870148625E0,7.438403245E0,-3.425438678E0,-6.471070293E0,1.043734754E1
7.880089625E0,7.083454451E0,-3.975464035E0,-5.058084784E0,9.568900821E0
7.890030625E0,5.858158717E0,-4.051916379E0,-4.881492439E0,8.635103840E0
7.899971625E0,3.573365048E0,-3.428581556E0,-4.869622006E0,6.945309765E0
7.909911625E0,1.145322343E0,-2.474320639E0,-4.190059188E0,4.999062101E0
7.919852625E0,-3.450748935E-1,-1.744845403E0,-3.655172272E0,4.064953444E0
7.929793625E0,-9.810133901E-1,-1.558961833E0,-3.210332478E0,3.701213840E0
7.939734625E0,-1.013312678E0,-1.971853026E0,-2.365837540E0,3.242251410E0
7.949675625E0,-1.303756013E0,-2.444786353E0,-9.902669013E-1,2.942344064E0
7.959616625E0,-9.633045128E-1,-2.719138881E0,-3.745916381E-1,2.908950108E0
7.969556625E0,1.434737152E0,-4.014205347E0,-4.891730914E-1,4.290874686E0
7.979497625E0,4.898077189E0,-6.297805599E0,1.009179136E0,8.041887716E0
7.989438625E0,8.327849531E0,-7.722696624E0,2.234370790E0,1.157521204E1
7.999379625E0,7.068877927E0,-5.936403233E0,1.926004423E0,9.429708984E0
8.009320625E0,-2.578892829E0,-7.162804091E-1,7.472282013E0,7.937174833E0
8.019261625E0,-1.250633942E1,2.973588071E0,1.057486726E1,1.664567719E1
8.029201625E0,-1.857508502E1,5.281788729E0,5.243335100E0,2.001058816E1
8.039142625E0,-1.781345127E1,6.159872705E0,-2.381384994E0,1.899826498E1
8.049083625E0,-9.164828165E0,2.991281746E0,-6.160611209E0,1.144093406E1
8.059024625E0,-3.476693031E-1,-1.047236323E0,1.206281759E0,1.634837467E0
8.068965625E0,4.134032045E0,-3.576689774E0,1.050220976E1,1.183973566E1
8.078906625E0,4.858932127E0,-3.619253996E0,1.000734119E1,1.169850839E1
8.088846625E0,2.838792794E0,-2.130316663E0,5.897907504E0,6.883480699E0
8.098787625E0,2.800442076E-1,-2.019305520E0,3.812627557E0,4.323441734E0
8.108728625E0,-8.890279171E-1,-2.216486496E0,3.050502346E0,3.874112490E0
8.118669625E0,-6.492759955E-1,-1.899328256E0,2.588227324E0,3.275351557E0
8.128610625E0,5.912616760E-1,-1.999977549E0,2.505481913E0,3.259898800E0
8.138551625E0,1.850150834E0,-1.919118742E0,2.773565641E0,3.846913207E0
8.148491625E0,1.985439909E0,-1.525413433E0,2.506059326E0,3.542483750E0
8.158432625E0,1.506418315E0,-1.150647840E0,1.480056289E0,2.404964285E0
8.168373625E0,1.113073633E0,-4.481440562E-1,4.519158027E-1,1.282183255E0
8.178314625E0,8.511720197E-1,1.962927836E-1,2.097095123E-1,8.983333143E-1
8.188255625E0,8.899723886E-1,7.678002262E-1,5.382973042E-1,1.292800073E0
8.198196625E0,8.689525254E-1,1.229118059E0,9.555404337E-1,1.782937805E0
8.208137625E0,9.267034279E-1,1.583965697E0,1.147831821E0,2.164542553E0
8.218077625E0,1.109752268E0,1.887266620E0,9.464541529E-1,2.385183610E0
8.228018625E0,1.196829881E0,2.153062917E0,6.244895022E-1,2.541273072E0
8.237959625E0,1.026177576E0,2.454481037E0,2.767452085E-1,2.674715964E0
8.247900625E0,7.337230919E-1,2.755337239E0,-1.418778639E-1,2.854883921E0
8.257841625E0,5.204036549E-1,2.880054256E0,-6.818050794E-1,3.005060839E0
8.267782625E0,2.633322805E-1,2.959310340E0,-1.076119230E0,3.159888317E0
8.277722625E0,8.497787744E-2,3.102219214E0,-1.468128115E0,3.433130562E0
8.287663625E0,4.490778565E-2,3.347789993E0,-1.712085793E0,3.760445759E0
8.297604625E0,8.790967137E-2,3.267322950E0,-1.581305798E0,3.630930376E0
8.307545625E0,2.613032967E-2,3.035404835E0,-8.913730160E-1,3.163686325E0
8.317486625E0,1.264318590E-1,2.672312624E0,2.137251607E-1,2.683825296E0
8.327427625E0,3.258857936E-1,2.452556133E0,8.522106314E-1,2.616772076E0
8.337367625E0,5.233579606E-1,2.264937694E0,7.159599817E-1,2.432374356E0
8.347308625E0,6.011278291E-1,2.087568254E0,-1.834289092E-1,2.180124320E0
8.357249625E0,4.254976438E-1,1.979749691E0,-1.568819069E0,2.561571853E0
8.367190625E0,-5.768862963E-3,1.879871646E0,-3.283411564E0,3.783482811E0
8.377131625E0,-1.575017703E-1,1.609411610E0,-4.685535285E0,4.956738186E0
8.387072625E0,3.188350748E-1,9.905539995E-1,-4.727058118E0,4.840240850E0
8.397012625E0,1.285604794E0,4.168152595E-1,-3.397441040E0,3.656380760E0
8.406953625E0,2.033953088E0,7.103899240E-2,-1.668511319E0,2.631718397E0
8.416894625E0,2.369205244E0,-4.564348233E-1,-5.027897948E-1,2.464602161E0
8.426835625E0,2.348373515E0,-6.263461393E-1,-6.657518412E-1,2.519998644E0
8.436776625E0,2.280170568E0,-4.338242251E-1,-2.323944871E0,3.284524477E0
8.446717625E0,2.455094994E0,-3.156163287E-1,-3.556388242E0,4.333013088E0
8.456657625E0,3.082688345E0,-5.805589324E-1,-3.077190793E0,4.394214296E0
8.466598625E0,3.884007735E0,-9.185975790E-1,-2.085242232E0,4.503062598E0
8.476539625E0,4.429033722E0,-1.299805049E0,-1.878295237E0,4.983354882E0
8.486480625E0,4.682538880E0,-1.988938590E0,-2.728142424E0,5.772764343E0
8.496421625E0,4.672431383E0,-2.513761278E0,-3.697577450E0,6.467046450E0
8.506362625E0,4.866050235E0,-2.757797747E0,-3.371627921E0,6.530832117E0
8.516303625E0,5.792471681E0,-3.213118091E0,-1.603361496E0,6.815249381E0
8.526243625E0,6.718713325E0,-3.904205187E0,1.503886324E-1,7.772164668E0
8.536184625E0,7.008874969E0,-4.630080877E0,9.093502074E-1,8.449194936E0
8.546125625E0,6.546799922E0,-5.355774134E0,1.025865920E0,8.520405312E0
8.556066625E0,4.999951181E0,-6.140653492E0,2.142284598E-1,7.921681069E0
8.566007625E0,3.067365424E0,-6.052479234E0,-1.274417608E0,6.904011570E0
8.575948625E0,1.581874148E0,-4.786721937E0,-2.395342298E0,5.581460153E0
8.585888625E0,3.684411713E-1,-3.403011682E0,-2.184515090E0,4.060584143E0
8.595829625E0,-8.795770624E-1,-2.808993629E0,-1.071022797E0,3.132282051E0
8.605770625E0,-1.815829140E0,-2.502798918E0,9.225672537E-1,3.226820142E0
8.615711625E0,-1.646208284E0,-2.351078875E0,3.629072056E0,4.626849639E0
8.625652625E0,-5.324869991E-1,-2.771520578E0,5.464559827E0,6.150307538E0
8.635593625E0,6.846753314E-1,-3.398428634E0,4.518575059E0,5.695227656E0
8.645533625E0,8.077058651E-1,-4.369444748E0,2.210448807E0,4.962914476E0
8.655474625E0,-1.920624693E-1,-5.897556671E0,-7.928272594E-1,5.953707899E0
8.665415625E0,-9.817679733E-1,-5.803669099E0,-2.634404540E0,6.448761946E0
8.675356625E0,-1.574982327E0,-3.691574113E0,-3.104628267E0,5.074150711E0
8.685297625E0,-2.443608724E0,-3.089551222E0,-3.517058992E0,5.280743726E0
8.695240417E0,-2.769476391E0,-3.196184555E0,-2.635554980E0,4.983146119E0
8.705180417E0,-2.182384803E0,-3.567835336E0,-7.227146852E-1,4.244357304E0
8.715121417E0,-1.146517952E0,-3.786591368E0,1.985988085E0,4.426841569E0
8.725062417E0,1.822436786E-1,-3.071289198E0,3.618142440E0,4.749419419E0
8.735003417E0,1.217527708E0,-1.990943016E0,3.613999103E0,4.302001549E0
8.744944417E0,1.676497007E0,-1.526955344E0,4.003953716E0,4.601508470E0
8.754885417E0,1.551088557E0,-1.173585298E0,3.959390039E0,4.411343066E0
8.764825417E0,7.039443921E-1,4.639414787E-2,3.392396647E0,3.464974045E0
8.774766417E0,-4.464644435E-1,1.699126609E0,3.087163219E0,3.552033006E0
8.784707417E0,-1.199332197E0,3.006107946E0,3.543750070E0,4.799296538E0
8.794648417E0,-1.395043621E0,3.624745116E0,5.156761225E0,6.455781145E0
8.804589417E0,-1.216804408E0,3.870037567E0,6.292905048E0,7.487219622E0
8.814530417E0,-1.213125047E0,4.291004934E0,6.344743538E0,7.755009110E0
8.824471417E0,-1.470053019E0,4.902913713E0,6.036158486E0,7.914216830E0
8.834411417E0,-2.068875291E0,5.520010142E0,5.661400495E0,8.173262048E0
8.844352417E0,-2.675642028E0,5.960360445E0,5.374356000E0,8.459826199E0
8.854293417E0,-3.363595894E0,6.024935925E0,5.055041308E0,8.553775357E0
8.864234417E0,-3.920142650E0,5.968645365E0,4.791861640E0,8.599661846E0
8.874175417E0,-4.301397191E0,5.778968706E0,4.575033435E0,8.534015937E0
8.884116417E0,-4.291042064E0,5.375813127E0,4.562243820E0,8.253876510E0
8.894056417E0,-3.755760754E0,4.954350500E0,4.502181221E0,7.675999183E0
8.903997417E0,-2.908101887E0,4.510783644E0,3.980417796E0,6.681912264E0
8.913938417E0,-2.227560245E0,4.171381427E0,2.808631101E0,5.500077847E0
8.923879417E0,-1.769109594E0,3.805773159E0,1.228340380E0,4.372925586E0
8.933820417E0,-1.405601353E0,3.422299892E0,-7.059536415E-1,3.766460177E0
8.943761417E0,-1.215816813E0,3.319091858E0,-2.553976966E0,4.360892068E0
8.953701417E0,-9.880154309E-1,3.079123882E0,-4.511577989E0,5.550812041E0
8.963642417E0,-1.907712579E-1,1.569977987E0,-6.466645705E0,6.657231499E0
8.973583417E0,1.173179209E0,-6.525019044E-1,-7.933201066E0,8.045979576E0
8.983524417E0,2.992195666E0,-2.145810615E0,-8.195643985E0,8.984782603E0
8.993465417E0,4.776444578E0,-2.809593553E0,-6.893694177E0,8.844843591E0
9.003406417E0,4.482819628E0,-3.523474849E0,-4.832425529E0,7.474147665E0
9.013347417E0,3.305894400E0,-4.172960760E0,-4.688350427E0,7.093882507E0
9.023287417E0,2.241055911E0,-4.202603804E0,-5.874920930E0,7.562995852E0
9.033228417E0,6.554529941E-1,-3.504084313E0,-6.547346052E0,7.454928962E0
9.043169417E0,-1.071952212E0,-2.677081028E0,-6.388359089E0,7.009063862E0
9.053110417E0,-1.787673919E0,-2.172865682E0,-6.210171039E0,6.817869730E0
9.063051417E0,-8.825965646E-1,-2.247905924E0,-5.754272990E0,6.240489996E0
9.072992417E0,1.292502462E0,-2.869649135E0,-4.569675046E0,5.548637563E0
9.082932417E0,4.409325390E0,-4.541973862E0,-2.058602025E0,6.656539585E0
9.092873417E0,7.997759589E0,-7.527577377E0,3.723470090E0,1.159710348E1
9.102814417E0,1.124337475E1,-9.291909211E0,7.610950486E0,1.645234390E1
9.112755417E0,9.640604993E0,-6.853110407E0,4.166956839E0,1.254073029E1
9.122696417E0,-1.917283594E0,-1.196166075E0,8.407951707E0,8.706344903E0
9.132637417E0,-1.481075751E1,1.648537669E0,1.319607815E1,1.990509214E1
9.142577417E0,-2.317424875E1,4.466234878E0,6.888943899E0,2.458557721E1
9.152518417E0,-2.278029142E1,5.696590793E0,-2.311106139E0,2.359521213E1
9.162459417E0,-1.385368408E1,2.606499288E0,-9.005346528E0,1.672766174E1
9.172400417E0,-3.312604665E0,-1.621679653E0,-2.492541148E0,4.451511646E0
9.182341417E0,4.353087454E0,-4.498379361E0,1.045195879E1,1.218311248E1
9.192282417E0,8.372642126E0,-6.136104358E0,1.253899612E1,1.627818591E1
9.202223417E0,7.621654984E0,-4.843251649E0,8.478447493E0,1.238671801E1
9.212163417E0,3.055890263E0,-2.908702104E0,4.691705560E0,6.309604923E0
9.222104417E0,-2.556031385E-1,-2.674139879E0,2.241543569E0,3.498696132E0
9.232045417E0,-1.370160502E0,-2.092170013E0,1.775342726E0,3.066978474E0
9.241986417E0,-5.005532348E-1,-1.091882154E0,2.071547468E0,2.394591634E0
9.251927417E0,3.938359943E-1,-1.022690881E0,2.136225275E0,2.400929373E0
9.261868417E0,8.800927868E-1,-1.165797976E0,1.783288800E0,2.305160988E0
9.271808417E0,1.005496267E0,-7.760886544E-1,7.977318308E-1,1.499904136E0
9.281749417E0,9.733032516E-1,-6.263829768E-2,-2.453228563E-2,9.756252400E-1
9.291690417E0,1.202163857E0,5.893046129E-1,-5.629640758E-2,1.340017594E0
9.301631417E0,1.582608558E0,1.237571964E0,5.136662006E-1,2.073665156E0
9.311572417E0,1.686051358E0,1.910875338E0,1.238063861E0,2.833198874E0
9.321513417E0,1.550426360E0,2.338052448E0,1.624441001E0,3.241777246E0
9.331453417E0,1.169943945E0,2.698478329E0,1.517491626E0,3.309582294E0
9.341394417E0,7.501781800E-1,3.086853901E0,1.023293291E0,3.337448646E0
9.351335417E0,2.468729532E-1,3.398487691E0,4.891043866E-1,3.442366620E0
9.361276417E0,-1.556505418E-1,3.622367054E0,-5.196841550E-1,3.662764227E0
9.371217417E0,-2.093247655E-1,3.622552410E0,-7.708830245E-1,3.709577262E0
9.381158417E0,3.508270919E-2,3.381962290E0,-1.302317598E0,3.624214516E0
9.391099417E0,2.123857829E-1,3.320302817E0,-1.557934331E0,3.673782505E0
9.401039417E0,3.537102078E-1,3.264152589E0,-1.320660313E0,3.538918861E0
9.410980417E0,3.738930421E-1,3.198640970E0,-8.157905909E-1,3.322140026E0
9.420921417E0,3.906217799E-1,3.038871650E0,-9.931386150E-2,3.065483570E0
9.430862417E0,3.892102620E-1,2.878138123E0,4.534070985E-1,2.939513851E0
9.440803417E0,2.921811269E-1,2.662907962E0,5.955166948E-1,2.744282923E0
9.450744417E0,1.320875783E-1,2.423639898E0,2.524921274E-1,2.440333944E0
9.460684417E0,2.011588365E-2,2.197309967E0,-8.198614955E-1,2.345367479E0
9.470625417E0,2.614056230E-1,1.865126138E0,-2.178842706E0,2.879997213E0
9.480566417E0,9.913164765E-1,1.307090095E0,-3.310038614E0,3.694258857E0
9.490507417E0,1.544199660E0,7.775837874E-1,-3.568686106E0,3.965439403E0
9.500448417E0,1.583529494E0,5.791304576E-1,-2.863987277E0,3.323459172E0
9.510389417E0,1.396023029E0,4.709873736E-1,-2.307252824E0,2.737539954E0
9.520329417E0,1.418516099E0,1.631513500E-1,-2.209071642E0,2.630361915E0
9.530270417E0,1.728841428E0,-3.505452561E-1,-2.412830589E0,2.988900485E0
9.540211417E0,1.883332321E0,-7.148864329E-1,-3.051282949E0,3.656272813E0
9.550152417E0,1.970087898E0,-7.640211707E-1,-3.553704954E0,4.134464122E0
9.560093417E0,2.424303557E0,-8.602265793E-1,-3.183575619E0,4.092968510E0
9.570034417E0,3.140796220E0,-1.412739927E0,-2.276361838E0,4.128227006E0
9.579975417E0,3.634930381E0,-2.251237668E0,-1.896286096E0,4.677252492E0
9.589915417E0,3.457995390E0,-2.766674990E0,-2.203613997E0,4.946527799E0
9.599856417E0,2.928108136E0,-2.948041586E0,-2.697573765E0,4.953955053E0
9.609797417E0,2.886424797E0,-2.885988595E0,-2.622244670E0,4.851447762E0
9.619738417E0,4.021048343E0,-3.435136285E0,-1.750709722E0,5.570814627E0
9.629679417E0,5.514130182E0,-4.434225465E0,-6.656435215E-1,7.107113932E0
9.639620417E0,6.278138489E0,-4.950947421E0,-8.393809631E-2,7.995870738E0
9.649561417E0,5.716418701E0,-5.093979086E0,-1.481867172E-1,7.658199854E0
9.659501417E0,4.247674727E0,-4.951035714E0,7.056668356E-2,6.523838968E0
9.669442417E0,2.785938057E0,-4.567881705E0,-3.054928981E-1,5.359134262E0
9.679383417E0,1.676112261E0,-3.983406892E0,-1.515860252E0,4.579816054E0
9.689324417E0,2.401784760E-1,-3.376801538E0,-1.937491863E0,3.900557530E0
9.699264250E0,-9.950908542E-1,-2.999998775E0,-1.379703743E0,3.448736127E0
9.709205250E0,-1.416267259E0,-2.993952169E0,-7.591171110E-1,3.397914262E0
9.719145250E0,-1.393875639E0,-3.424347003E0,4.903065741E-1,3.729536463E0
9.729086250E0,-4.633892823E-1,-4.428653069E0,2.790120571E0,5.254756933E0
9.739027250E0,1.096847098E0,-4.944551151E0,4.032446905E0,6.473970010E0
9.748968250E0,2.243703969E0,-4.615925937E0,3.868514367E0,6.427004214E0
9.758909250E0,2.353661152E0,-4.488703973E0,2.428716012E0,5.620217580E0
9.768850250E0,1.550810668E0,-4.436265559E0,5.619760425E-1,4.732999356E0
9.778791250E0,4.329168834E-2,-3.899950753E0,-1.662574787E0,4.239769447E0
9.788731250E0,-1.781176493E0,-3.351712890E0,-4.034785792E0,5.539500463E0
9.798672250E0,-2.437040108E0,-3.352212242E0,-4.397385668E0,6.042639499E0
9.808613250E0,-2.283264914E0,-4.033306446E0,-1.889255989E0,5.005012263E0
9.818554250E0,-1.171953048E0,-4.145674728E0,1.220333202E0,4.477645143E0
9.828495250E0,-2.503552625E-1,-3.515002819E0,3.288159210E0,4.819742064E0
9.838436250E0,3.067167203E-1,-2.717939032E0,4.959443425E0,5.663686681E0
9.848377250E0,7.869269072E-1,-2.004741275E0,5.151030369E0,5.583131326E0
9.858317250E0,7.010295551E-1,-1.650446784E0,4.090974026E0,4.466708576E0
9.868258250E0,5.464206947E-1,-8.022566986E-1,3.055510779E0,3.205984639E0
9.878199250E0,7.770350263E-2,4.831273627E-1,3.193015949E0,3.230294217E0
9.888140250E0,-5.492218034E-1,1.715516354E0,4.250929872E0,4.616822038E0
9.898081250E0,-8.644371593E-1,3.050540353E0,5.340155636E0,6.210500001E0
9.908022250E0,-1.026928943E0,4.235521290E0,5.876223689E0,7.316025458E0
9.917962250E0,-1.283602415E0,4.863744385E0,5.744061998E0,7.635305681E0
9.927903250E0,-1.715303516E0,5.113305888E0,5.562273232E0,7.747712357E0
9.937844250E0,-2.122771270E0,5.333340706E0,5.486640083E0,7.940648610E0
9.947785250E0,-2.633948750E0,5.679766599E0,5.275315277E0,8.186964389E0
9.957726250E0,-3.430388053E0,6.145330095E0,5.036987445E0,8.654703155E0
9.967667250E0,-4.225971325E0,6.596493654E0,5.076256176E0,9.334931115E0
9.977608250E0,-4.712529541E0,6.657231022E0,5.141458477E0,9.641641708E0
9.987548250E0,-4.773095586E0,6.464124386E0,5.285173683E0,9.617713159E0
9.997489250E0,-4.565403655E0,6.169998329E0,5.560163557E0,9.477721704E0
1.000743025E1,-4.168172767E0,5.857188079E0,5.147338437E0,8.841685891E0
1.001737125E1,-3.507606091E0,5.528542399E0,4.105259358E0,7.727951601E0
1.002731225E1,-2.817104886E0,4.995185115E0,2.842954842E0,6.400808270E0
1.003725325E1,-2.277669129E0,4.380453300E0,1.314904899E0,5.109317241E0
1.004719425E1,-2.061429446E0,3.965501549E0,-6.039284992E-1,4.509925002E0
1.005713425E1,-1.818533185E0,3.388513511E0,-3.059376373E0,4.914150033E0
1.006707525E1,-8.939775851E-1,2.336143917E0,-6.273679987E0,6.753948838E0
1.007701625E1,1.081938671E0,9.829321539E-1,-9.164282620E0,9.280130540E0
1.008695725E1,3.806927107E0,-9.875362515E-1,-9.518791119E0,1.029928668E1
1.009689825E1,6.584844246E0,-3.350323007E0,-7.316374193E0,1.039779637E1
1.010683925E1,8.116876143E0,-4.889071015E0,-4.700328741E0,1.057732405E1
1.011677925E1,7.515947850E0,-5.555861760E0,-3.385381742E0,9.940718360E0
1.012672025E1,5.635872136E0,-5.246035929E0,-4.446537655E0,8.891324132E0
1.013666125E1,3.118685266E0,-4.018310092E0,-6.154058819E0,7.984075008E0
1.014660225E1,2.882247546E-1,-2.549254462E0,-6.158733668E0,6.671714338E0
1.015654325E1,-1.460485658E0,-1.007924323E0,-4.797919647E0,5.115560843E0
1.016648425E1,-2.805489977E0,3.485308903E-1,-2.908071190E0,4.055752191E0
1.017642525E1,-3.845764313E0,1.033275511E0,-1.470285884E0,4.244914842E0
1.018636525E1,-4.331580226E0,8.096575195E-1,-1.224122198E0,4.573467799E0
1.019630625E1,-3.683860174E0,3.648317581E-1,-8.329241753E-1,3.794428900E0
1.020624725E1,-1.970771291E0,-3.442986757E-1,3.912792993E-1,2.038524111E0
1.021618825E1,1.756550652E0,-2.929959657E0,2.373029907E0,4.159495730E0
1.022612925E1,8.761563243E0,-6.794210234E0,1.894038865E0,1.124782941E1
1.023607025E1,1.351260196E1,-9.440882233E0,-1.736447632E0,1.657515971E1
1.024601125E1,8.240039554E0,-7.085295154E0,5.920422792E-1,1.088348167E1
1.025595125E1,-5.642233322E0,-1.234902710E0,1.071814042E1,1.217531583E1
1.026589225E1,-1.771423337E1,4.886728621E-1,1.106529663E1,2.089195191E1
1.027583325E1,-2.201123054E1,2.402999811E0,2.002415253E0,2.223237155E1
1.028577425E1,-1.545866877E1,3.101367275E0,-6.279738872E0,1.697127100E1
1.029571525E1,-5.027411460E0,-1.001988230E0,-4.082825931E0,6.553496317E0
1.030565625E1,2.175927577E0,-3.589608028E0,6.682613785E0,7.891595124E0
1.031559725E1,6.526363319E0,-5.105311575E0,1.110724455E1,1.385743504E1
1.032553725E1,8.058544319E0,-5.281999814E0,9.210460421E0,1.332937507E1
1.033547825E1,6.929798394E0,-4.232486000E0,6.521493757E0,1.041469752E1
1.034541925E1,4.355458208E0,-3.628767416E0,4.956875328E0,7.530510087E0
1.035536025E1,1.750331554E0,-2.641566795E0,3.864503177E0,4.997591468E0
1.036530125E1,-3.349179876E-1,-1.544295262E0,2.686482766E0,3.116762354E0
1.037524225E1,-1.160748321E0,-9.646847481E-1,2.013073558E0,2.516032288E0
1.038518325E1,-1.218325853E0,-5.371702534E-1,1.909212682E0,2.327651785E0
1.039512325E1,-9.011103112E-1,-2.702980685E-1,1.651807724E0,1.900928614E0
1.040506425E1,-5.532690999E-1,-2.217381120E-2,1.033190434E0,1.172211947E0
1.041500525E1,-3.118355191E-1,5.455089676E-1,5.509193963E-1,8.356635722E-1
1.042494625E1,1.841270667E-1,7.921328294E-1,2.939009392E-1,8.647282569E-1
1.043488725E1,6.585993809E-1,9.941605622E-1,3.358912566E-1,1.238923446E0
1.044482825E1,8.353782517E-1,1.442523304E0,7.032762015E-1,1.809234015E0
1.045476825E1,8.460779254E-1,1.897923170E0,9.985825190E-1,2.305455977E0
1.046470925E1,6.354594634E-1,2.352350644E0,1.101427149E0,2.674042641E0
1.047465025E1,4.129961506E-1,2.811394495E0,7.779660492E-1,2.946139169E0
1.048459125E1,3.054142530E-1,3.114666182E0,3.665863614E-1,3.151001246E0
1.049453225E1,2.030702913E-1,3.475701928E0,2.099686901E-1,3.487954743E0
1.050447325E1,-1.056698580E-1,3.540736415E0,2.209450833E-1,3.549196699E0
1.051441425E1,-3.214920495E-1,3.543907360E0,-2.572716415E-1,3.567747919E0
1.052435425E1,-3.662119934E-1,3.609873893E0,-7.386178692E-1,3.702817455E0
1.053429525E1,-1.958467872E-1,3.525305028E0,-7.450697601E-1,3.608498365E0
1.054423625E1,1.066672468E-1,3.373891963E0,-2.694232885E-1,3.386312713E0
1.055417725E1,3.944651547E-1,3.158945977E0,3.368873298E-1,3.201255303E0
1.056411825E1,5.794912308E-1,2.986227998E0,7.733562505E-1,3.138701583E0
1.057405925E1,5.834430715E-1,2.835747564E0,7.765318733E-1,2.997477575E0
1.058400025E1,4.725434639E-1,2.539588430E0,3.682178807E-1,2.609289391E0
1.059394025E1,4.476007037E-1,2.254312719E0,-8.350449604E-1,2.445316403E0
1.060388125E1,7.794858867E-1,1.899581441E0,-2.725648586E0,3.412501738E0
1.061382225E1,1.773016411E0,1.466113896E0,-4.146089880E0,4.741638793E0
1.062376325E1,3.109337322E0,1.018192034E0,-4.305420660E0,5.407526298E0
1.063370425E1,3.876488215E0,5.244654232E-1,-3.548071162E0,5.281196250E0
1.064364525E1,3.864260518E0,2.285910487E-2,-2.823240370E0,4.785782911E0
1.065358625E1,3.212984482E0,-3.062607837E-1,-2.886389714E0,4.329931932E0
1.066352625E1,2.476020425E0,-4.422021157E-1,-3.411356243E0,4.238345346E0
1.067346725E1,2.060838293E0,-3.935831022E-1,-3.836657567E0,4.372859867E0
1.068340825E1,2.195326592E0,-4.737180233E-1,-3.742044355E0,4.364259796E0
1.069334925E1,2.481166852E0,-6.797680557E-1,-3.165849200E0,4.079322825E0
1.070328929E1,2.937320716E0,-7.580149108E-1,-2.796765347E0,4.126055744E0
1.071323029E1,3.454265743E0,-1.054781570E0,-3.073860803E0,4.742692930E0
1.072317129E1,3.730181817E0,-1.541135427E0,-3.346631075E0,5.243023397E0
1.073311129E1,3.854174071E0,-1.713782655E0,-3.083992859E0,5.225200542E0
1.074305229E1,4.436723980E0,-2.146526315E0,-2.157344248E0,5.380169988E0
1.075299329E1,6.038933575E0,-3.408387027E0,-2.817492557E-1,6.940115524E0
1.076293429E1,7.376074850E0,-4.798573074E0,1.427551947E0,8.914633380E0
1.077287529E1,7.037267295E0,-5.626009637E0,6.334532838E-1,9.031964264E0
1.078281629E1,5.322107620E0,-5.780167969E0,-1.248965263E0,7.955820857E0
1.079275729E1,3.191385160E0,-5.594538168E0,-1.279207940E0,6.566594971E0
1.080269729E1,1.580129192E0,-5.353824087E0,-5.436112538E-1,5.608542932E0
1.081263829E1,8.490062110E-2,-4.745084499E0,-1.468396649E0,4.967818811E0
1.082257929E1,-8.783624496E-1,-3.953073292E0,-1.878299184E0,4.463890329E0
1.083252029E1,-6.174039924E-1,-4.385727489E0,-4.965104699E-1,4.456715825E0
1.084246129E1,1.390071733E-1,-5.594044079E0,1.869752455E0,5.899883591E0
1.085240229E1,4.486591959E-1,-6.835009766E0,5.017637839E0,8.490897659E0
1.086234329E1,3.998793840E-1,-7.582457589E0,6.934886642E0,1.028329808E1
1.087228329E1,4.816673130E-2,-7.063016093E0,6.619383749E0,9.680121775E0
1.088222429E1,-9.499446483E-1,-5.684034482E0,4.374573340E0,7.235159620E0
1.089216529E1,-1.753661250E0,-4.309206147E0,1.597085094E-1,4.655114629E0
1.090210629E1,-2.420442348E0,-3.670743408E0,-3.662547073E0,5.722512506E0
1.091204729E1,-3.061316479E0,-3.392956225E0,-4.695964379E0,6.552548511E0
1.092198829E1,-2.566992576E0,-3.280330081E0,-3.089039590E0,5.185767244E0
1.093192929E1,-1.463088108E0,-3.108727750E0,-2.606867078E-1,3.445688987E0
1.094186929E1,-2.428290188E-2,-3.199598159E0,7.310832202E-1,3.282148795E0
1.095181029E1,9.475774030E-1,-2.773626160E0,1.160312411E0,3.152337212E0
1.096175129E1,1.243650875E0,-2.419493052E0,1.726050991E0,3.221779966E0
1.097169229E1,1.382772069E0,-2.006779615E0,2.650646936E0,3.600715512E0
1.098163329E1,1.836159178E0,-1.968639981E0,3.775753261E0,4.637169028E0
1.099157429E1,1.960552112E0,-1.416366954E0,5.156921439E0,5.695937031E0
1.100151529E1,1.391727080E0,-1.343386102E-1,5.972658893E0,6.134134445E0
1.101145529E1,5.361227247E-1,1.374310271E0,6.225260949E0,6.397658179E0
1.102139629E1,-2.093083933E-1,2.963938996E0,6.422692770E0,7.076703102E0
1.103133729E1,-4.553048488E-1,4.119622459E0,6.333614532E0,7.569231451E0
1.104127829E1,-9.036893718E-1,5.205100157E0,6.046357200E0,8.029206531E0
1.105121929E1,-1.624969004E0,6.243816503E0,5.318250797E0,8.361193714E0
1.106116029E1,-2.569154291E0,6.981274942E0,4.695743939E0,8.797088424E0
1.107110129E1,-3.609839686E0,7.570104761E0,4.308379351E0,9.428656388E0
1.108104229E1,-4.642408562E0,7.941791210E0,4.161062261E0,1.009645700E1
1.109098229E1,-5.441549864E0,7.895720413E0,4.593153371E0,1.063249376E1
1.110092329E1,-5.891068600E0,7.697756495E0,5.218100857E0,1.100857488E1
1.111086429E1,-5.629165964E0,7.223713367E0,5.698958915E0,1.078645804E1
1.112080529E1,-4.583960671E0,6.448251534E0,5.794414710E0,9.806522580E0
1.113074629E1,-3.182985927E0,5.787575807E0,5.627503016E0,8.677339646E0
1.114068729E1,-1.690595521E0,5.661008146E0,4.371801175E0,7.349678358E0
1.115062829E1,-2.873061571E-1,5.258647789E0,2.545495287E0,5.849398914E0
1.116056829E1,6.138624801E-1,4.282749835E0,1.003667842E0,4.441409960E0
1.117050929E1,1.046721768E0,3.421843809E0,-8.486897305E-1,3.677623659E0
1.118045029E1,1.175978271E0,2.912099921E0,-3.346931914E0,4.589684529E0
1.119039129E1,1.388601743E0,2.846845579E0,-5.924848550E0,6.718375912E0
1.120033229E1,2.242855099E0,2.577361443E0,-8.193338428E0,8.877160897E0
1.121027329E1,3.667203796E0,1.691926932E0,-9.461630493E0,1.028753868E1
1.122021429E1,5.357481521E0,3.407587713E-1,-9.113847461E0,1.057737871E1
1.123015429E1,7.066101084E0,-1.462066453E0,-6.917349672E0,9.995856608E0
1.124009529E1,7.990497932E0,-2.686723087E0,-3.397731062E0,9.089065657E0
1.125003629E1,7.890304137E0,-3.619220082E0,-1.721366786E0,8.849788528E0
1.125997729E1,6.555042157E0,-4.402141208E0,-3.323206252E0,8.566862009E0
1.126991829E1,3.793888693E0,-4.342193214E0,-5.774680942E0,8.160586579E0
1.127985929E1,3.393779513E-1,-3.414427786E0,-6.484090873E0,7.336002246E0
1.128980029E1,-2.603186840E0,-2.552342961E0,-5.423656799E0,6.535066135E0
1.129974129E1,-4.189032125E0,-2.451823477E0,-4.564223687E0,6.662699631E0
1.130968129E1,-4.286647297E0,-3.123293749E0,-3.807063054E0,6.528708754E0
1.131962229E1,-3.737148482E0,-3.853373002E0,-1.017761094E0,5.463570253E0
1.132956329E1,-1.194741109E-1,-6.143836716E0,2.650290840E0,6.692162969E0
1.133950429E1,5.937434682E0,-1.024113041E1,6.026155069E0,1.328338916E1
1.134944529E1,1.092451789E1,-1.117698546E1,2.313220493E0,1.579940139E1
1.135938629E1,7.984797481E0,-6.683542323E0,-2.282628737E0,1.066007142E1
1.136932729E1,-4.894056644E0,-1.615362321E0,1.000759028E1,1.125668908E1
1.137926729E1,-1.663951514E1,3.139691681E-1,1.562511210E1,2.282796900E1
1.138920829E1,-2.027941156E1,3.681929131E0,6.179402406E0,2.151734531E1
1.139914929E1,-1.481956342E1,4.044774590E0,-6.509919779E0,1.668408574E1
1.140909029E1,-5.276472441E0,-1.753714460E-1,-5.494542595E0,7.619836933E0
1.141903129E1,1.410885482E0,-2.921023942E0,7.084539109E0,7.791897914E0
1.142897229E1,4.775448798E0,-3.925770888E0,1.219890100E1,1.367588293E1
1.143891329E1,6.191475152E0,-3.573134083E0,9.181065298E0,1.163587606E1
1.144885429E1,5.640451090E0,-3.320754222E0,6.059446192E0,8.919584366E0
1.145879429E1,3.068907627E0,-3.003764382E0,4.549648333E0,6.256204475E0
1.146873529E1,8.299499890E-1,-2.130187440E0,3.664559100E0,4.319202347E0
1.147867629E1,-2.538916585E-1,-1.485189852E0,2.776762899E0,3.159218585E0
1.148861729E1,-3.384070212E-1,-1.218649789E0,2.193213700E0,2.531760841E0
1.149855829E1,1.659428108E-1,-1.012019713E0,2.138117141E0,2.371342621E0
1.150849929E1,7.741365615E-1,-1.061055633E0,1.219188902E0,1.792079254E0
1.151844029E1,1.241874930E0,-8.611545324E-1,-1.291416049E-2,1.511293236E0
1.152838129E1,1.263312869E0,-5.481004536E-2,-4.877779457E-1,1.355319471E0
1.153832129E1,1.213042602E0,6.785401404E-1,-5.056730568E-1,1.479051830E0
1.154826229E1,1.066534474E0,1.461670597E0,3.439332247E-3,1.809416631E0
1.155820329E1,7.782353134E-1,2.214904239E0,4.342379156E-1,2.387470117E0
1.156814429E1,3.300636292E-1,2.897375463E0,5.839671282E-1,2.974011462E0
1.157808529E1,5.417635337E-2,3.417181824E0,1.365925802E0,3.680464644E0
1.158802629E1,-4.461232585E-1,3.734290363E0,1.086534436E0,3.914652929E0
1.159796729E1,-5.771003044E-1,4.136632594E0,-3.189795741E-1,4.188856878E0
1.160790729E1,-3.709188558E-1,4.090013328E0,-1.237162074E0,4.289097786E0
1.161784829E1,-1.745586830E-1,3.911286165E0,-2.246915406E0,4.514117748E0
1.162778929E1,4.971302748E-3,4.152820026E0,-2.524047700E0,4.859707365E0
1.163773029E1,2.512840927E-2,4.342672686E0,-2.032317914E0,4.794763143E0
1.164767129E1,7.627195805E-2,4.105305551E0,-1.264030030E0,4.296175392E0
1.165761229E1,6.659934774E-2,3.795744599E0,-2.847921101E-1,3.806996070E0
1.166755329E1,5.746965140E-2,3.476714081E0,5.115155947E-1,3.514611183E0
1.167749429E1,-1.153158635E-1,3.228310912E0,5.964464021E-1,3.284971446E0
1.168743429E1,-4.288080449E-1,2.966552117E0,-2.450386634E-1,3.007382874E0
1.169737650E1,-6.206841342E-1,2.584806118E0,-1.774473830E0,3.196127162E0
1.170731750E1,-1.786010094E-1,2.144222512E0,-3.366192935E0,3.995102423E0
1.171725850E1,7.397199963E-1,1.736068733E0,-4.072261181E0,4.488254833E0
1.172719950E1,1.755289700E0,1.208505455E0,-3.002237674E0,3.681705911E0
1.173714050E1,2.195667192E0,4.770474279E-1,-1.067523238E0,2.487596135E0
1.174708150E1,1.974880714E0,-2.512916940E-1,-2.699864119E-1,2.009028127E0
1.175702250E1,1.597943758E0,-6.939183176E-1,-1.438314478E0,2.259135991E0
1.176696250E1,1.553512374E0,-8.421037191E-1,-3.418645383E0,3.848334136E0
1.177690350E1,1.885479711E0,-1.003229009E0,-4.485956367E0,4.968431011E0
1.178684450E1,2.244813478E0,-1.160355973E0,-4.872391832E0,5.488698908E0
1.179678550E1,2.677577164E0,-1.325243946E0,-5.020878950E0,5.842509428E0
1.180672650E1,3.062389443E0,-1.551163986E0,-3.928851786E0,5.217299605E0
1.181666750E1,3.196351785E0,-2.247238757E0,-2.286251380E0,4.526995929E0
1.182660850E1,3.461007290E0,-2.841363814E0,-2.223298502E0,4.999497577E0
1.183654850E1,3.993490708E0,-3.055385356E0,-3.478465907E0,6.114169835E0
1.184648950E1,4.940016636E0,-3.206520093E0,-3.676742651E0,6.942908035E0
1.185643050E1,6.336918794E0,-4.112260230E0,-1.282860988E0,7.662438013E0
1.186637150E1,7.712076911E0,-5.832134514E0,1.904722167E0,9.854840933E0
1.187631250E1,7.706488143E0,-6.604752846E0,2.495613860E0,1.045183277E1
1.188625350E1,5.855793518E0,-6.483120235E0,-7.113437511E-1,8.765111274E0
1.189619450E1,2.969828019E0,-5.941340622E0,-2.817188501E0,7.214981490E0
1.190613550E1,9.623087320E-1,-5.524137692E0,-1.824313742E0,5.896630899E0
1.191607550E1,2.352507350E-1,-5.041317308E0,-4.038958365E-1,5.062939359E0
1.192601650E1,-8.072286592E-1,-4.477314182E0,-4.988968648E-2,4.549774651E0
1.193595750E1,-2.122371759E0,-3.799291520E0,1.036416636E0,4.473615694E0
1.194589850E1,-2.528307981E0,-4.085417417E0,2.457435635E0,5.396477241E0
1.195583950E1,-1.266375202E0,-4.754264628E0,3.098835431E0,5.814595371E0
1.196578050E1,4.306502102E-1,-4.603035750E0,2.899058876E0,5.456916720E0
1.197572150E1,1.460575705E0,-4.151310275E0,2.379338468E0,5.002790215E0
1.198566250E1,1.301362601E0,-3.720151210E0,1.923170278E0,4.385390925E0
1.199560250E1,2.364304107E-1,-3.819984232E0,1.650519290E0,4.168020249E0
1.200554350E1,-1.149248748E0,-3.815011175E0,1.421747124E0,4.230419345E0
1.201548450E1,-2.316673127E0,-2.961971408E0,2.111255617E-1,3.766274420E0
1.202542550E1,-2.813949144E0,-2.010023065E0,-1.609105654E0,3.814147810E0
1.203536650E1,-2.524854616E0,-1.656277628E0,-2.272073490E0,3.778950166E0
1.204530750E1,-1.795703900E0,-1.774135276E0,-1.661250831E0,3.021897219E0
1.205524850E1,-8.858316828E-1,-1.676646988E0,-1.091701475E-1,1.899410702E0
1.206518950E1,1.222588474E-1,-1.253835994E0,2.121263419E0,2.467146210E0
1.207512950E1,1.133226792E0,-1.146026201E0,3.056648355E0,3.455528640E0
1.208507050E1,1.884589326E0,-9.473208565E-1,3.218589916E0,3.848170316E0
1.209501150E1,2.238211825E0,-6.193826902E-1,3.185708098E0,3.942329664E0
1.210495250E1,1.819755837E0,-6.229682028E-2,3.440598461E0,3.892699574E0
1.211489350E1,7.748186392E-1,1.050582100E0,3.973281854E0,4.182228516E0
1.212483450E1,-3.125346999E-1,2.219117743E0,4.464607013E0,4.995485690E0
1.213477550E1,-1.033733494E0,3.321032549E0,5.165544913E0,6.227416509E0
1.214471650E1,-1.363155392E0,3.884504163E0,6.066713111E0,7.331614637E0
1.215465650E1,-1.376620945E0,4.165441825E0,6.563208963E0,7.894409587E0
1.216459750E1,-1.600208385E0,4.591590995E0,6.575937767E0,8.178406462E0
1.217453850E1,-2.123744685E0,5.294325745E0,6.247332433E0,8.459866377E0
1.218447950E1,-2.738390254E0,5.869549677E0,5.861804456E0,8.735625111E0
1.219442050E1,-3.415539049E0,6.087159070E0,5.628820978E0,8.966774122E0
1.220436150E1,-3.893653886E0,6.078302293E0,5.501116619E0,9.075713934E0
1.221430250E1,-4.250380819E0,5.966601178E0,5.097876840E0,8.924932213E0
1.222424350E1,-4.295399702E0,5.788269871E0,4.525406361E0,8.510806627E0
1.223418350E1,-3.778042446E0,5.308360232E0,4.207171065E0,7.755809528E0
1.224412450E1,-3.078718962E0,4.970997523E0,3.786392562E0,6.966067431E0
1.225406550E1,-2.479588688E0,4.759177458E0,3.123159848E0,6.209046431E0
1.226400650E1,-2.130881504E0,4.737412952E0,1.954378037E0,5.550074862E0
1.227394750E1,-1.956984434E0,4.498660612E0,3.155069858E-1,4.916022786E0
1.228388850E1,-1.831546455E0,4.177528020E0,-1.699946389E0,4.867866114E0
1.229382950E1,-1.789928021E0,3.822023156E0,-3.865601869E0,5.723161813E0
1.230377050E1,-1.927333496E0,3.046404033E0,-6.046996300E0,7.039982684E0
1.231371050E1,-2.143171182E0,1.942817507E0,-7.904888847E0,8.417540631E0
1.232365150E1,-8.179433164E-1,1.101482697E0,-9.404834733E0,9.504378557E0
1.233359250E1,2.675459303E0,-3.844228542E-1,-1.052707446E1,1.086853993E1
1.234353350E1,6.568511803E0,-2.883389508E0,-9.905178638E0,1.222995692E1
1.235347450E1,8.464898325E0,-4.565042297E0,-5.918413104E0,1.129255190E1
1.236341550E1,7.809269915E0,-5.296582770E0,-2.678720003E0,9.808874884E0
1.237335650E1,5.617130055E0,-4.776971705E0,-4.492093019E0,8.634263630E0
1.238329750E1,2.601793157E0,-2.976213471E0,-7.377978703E0,8.370289362E0
1.239323750E1,1.303154334E-1,-1.681787860E0,-7.867075489E0,8.045885238E0
1.240317850E1,-1.631179332E0,-1.406837162E0,-6.463156672E0,6.812659611E0
1.241311950E1,-2.565674321E0,-1.578417858E0,-4.874637748E0,5.730286278E0
1.242306050E1,-2.253188884E0,-2.226775256E0,-3.337054505E0,4.601230374E0
1.243300150E1,1.390681598E0,-5.352204993E0,2.238339295E0,5.965756984E0
1.244294250E1,8.345533265E0,-1.017053230E1,5.530075539E0,1.427127844E1
1.245288350E1,1.377955308E1,-1.098024303E1,1.227886051E-1,1.761978709E1
1.246282450E1,9.419197834E0,-7.535141920E0,4.612302418E0,1.291406153E1
1.247276450E1,-7.752246698E0,-3.570340283E0,1.882785197E1,2.067202623E1
1.248270550E1,-2.182174333E1,6.591186136E-1,1.457205897E1,2.624819654E1
1.249264650E1,-2.535785869E1,3.671807601E0,-5.472923684E-1,2.562816219E1
1.250258750E1,-1.677126226E1,2.032013274E0,-9.531603538E0,1.939731378E1
1.251252850E1,-5.927866298E0,-2.954371197E0,-3.601581371E0,7.539184067E0
1.252246950E1,1.549712415E0,-5.209817691E0,7.631591742E0,9.369365051E0
1.253241050E1,6.320082321E0,-6.457707651E0,1.128806853E1,1.445911200E1
1.254235150E1,8.453695060E0,-6.488442956E0,9.471864874E0,1.425766728E1
1.255229150E1,7.407021239E0,-5.623196542E0,6.837246911E0,1.154262744E1
1.256223250E1,4.398136450E0,-4.237199441E0,4.708480637E0,7.711501361E0
1.257217350E1,1.488400558E0,-2.612527183E0,3.329513935E0,4.486234228E0
1.258211450E1,-3.730400795E-1,-1.440637577E0,2.840704833E0,3.206898732E0
1.259205550E1,-1.184442408E0,-9.749892962E-1,2.922934227E0,3.301068379E0
1.260199650E1,-1.202196017E0,-8.600499934E-1,2.697711467E0,3.076135305E0
1.261193750E1,-8.600143254E-1,-6.283002788E-1,1.932206858E0,2.206311225E0
1.262187850E1,-5.518882799E-1,-3.578092521E-1,1.003557622E0,1.199890010E0
1.263181850E1,-1.959618312E-1,1.011387044E-1,3.069560176E-1,3.779577669E-1
1.264175950E1,1.903821257E-1,6.037074745E-1,1.497147408E-1,6.504787253E-1
1.265170050E1,5.037738812E-1,1.145264309E0,3.643388379E-1,1.303135162E0
1.266164150E1,6.592569003E-1,1.721859414E0,5.863717957E-1,1.934748403E0
1.267158250E1,7.881201777E-1,2.211718676E0,7.475942954E-1,2.464088096E0
1.268152350E1,8.787107974E-1,2.640188021E0,6.476835063E-1,2.856959814E0
1.269146450E1,9.153234306E-1,2.911690616E0,4.883746541E-1,3.090998064E0
1.270140463E1,9.838557217E-1,3.186493964E0,5.117154233E-1,3.373954436E0
1.271134463E1,6.613007945E-1,3.656661558E0,-6.665839000E-1,3.775291590E0
1.272128563E1,3.567605540E-1,3.943739381E0,-4.017925930E-1,3.980175334E0
1.273122663E1,3.976977879E-1,3.863192816E0,1.704615390E-1,3.887348634E0
1.274116763E1,5.242183784E-1,3.708205349E0,-1.925417948E-1,3.750021888E0
1.275110863E1,5.645890170E-1,3.712209522E0,-8.199900611E-1,3.843389649E0
1.276104962E1,3.892216641E-1,3.744085034E0,-1.013088657E0,3.898206622E0
1.277099063E1,2.118110016E-1,3.968271959E0,-6.172133732E-1,4.021566684E0
1.278093163E1,-3.655240685E-2,4.111190189E0,-2.749314022E-1,4.120534932E0
1.279087163E1,-4.461788070E-1,3.893662072E0,5.655426979E-2,3.919550771E0
1.280081263E1,-7.269676575E-1,3.433346452E0,4.459215295E-1,3.537682270E0
1.281075363E1,-4.449418285E-1,2.866126188E0,-1.649996549E-1,2.905146716E0
1.282069463E1,4.397500858E-1,2.108235823E0,-2.078341933E0,2.992915571E0
1.283063563E1,1.514846638E0,1.628998028E0,-3.664559392E0,4.286885869E0
1.284057663E1,2.092870071E0,1.496339323E0,-4.062210987E0,4.808398341E0
1.285051763E1,2.008336143E0,1.277151182E0,-3.768781918E0,4.457381109E0
1.286045863E1,1.588405488E0,7.557368356E-1,-3.459816797E0,3.881301641E0
1.287039863E1,1.345494169E0,-1.993900537E-4,-3.459049643E0,3.711519774E0
1.288033963E1,1.547892762E0,-7.150916702E-1,-3.808890894E0,4.173125680E0
1.289028063E1,2.246585184E0,-1.312877085E0,-3.570369519E0,4.417955379E0
1.290022162E1,2.928644618E0,-1.898446496E0,-2.680795180E0,4.400877321E0
1.291016263E1,3.066044538E0,-2.138733730E0,-1.961749622E0,4.221761795E0
1.292010363E1,2.561627170E0,-2.187062137E0,-2.429051496E0,4.152766033E0
1.293004463E1,1.929517723E0,-2.331038128E0,-3.779537871E0,4.841661277E0
1.293998563E1,1.676702975E0,-2.517069048E0,-4.514529955E0,5.433962659E0
1.294992562E1,2.061307970E0,-2.531324560E0,-3.801479548E0,5.010772529E0
1.295986663E1,3.453464675E0,-2.768950142E0,-2.579547132E0,5.123237897E0
1.296980763E1,5.822807035E0,-3.853021585E0,-1.408510635E0,7.122833658E0
1.297974863E1,7.278263211E0,-5.421199799E0,-5.065776211E-1,9.089507331E0
1.298968963E1,6.697404317E0,-5.782573514E0,-8.988072391E-1,8.893887535E0
1.299963063E1,4.370010758E0,-4.891177767E0,-9.663939623E-1,6.629821360E0
1.300957163E1,2.670020515E0,-4.519057454E0,-2.176405294E-1,5.253404347E0
1.301951263E1,2.987010355E0,-4.532007283E0,4.863130720E-1,5.449570743E0
1.302945263E1,2.970055768E0,-4.065435727E0,1.033264402E0,5.139711494E0
1.303939363E1,1.583504644E0,-3.021848066E0,1.100414411E0,3.584684723E0
1.304933463E1,-1.003604400E-1,-2.079033659E0,9.382372069E-1,2.283143059E0
1.305927563E1,-1.208015604E0,-1.965605861E0,1.704884362E0,2.868717272E0
1.306921663E1,-8.510802184E-1,-3.234824125E0,2.881245918E0,4.414748317E0
1.307915763E1,5.362632041E-1,-4.569021912E0,3.830724982E0,5.986484223E0
1.308909863E1,1.549994251E0,-5.172412468E0,4.105121949E0,6.782946198E0
1.309903963E1,1.460112460E0,-5.507306482E0,2.848669910E0,6.370029304E0
1.310897963E1,8.268215825E-1,-4.725944223E0,6.083336453E-1,4.836140254E0
1.311892063E1,-3.779896013E-1,-3.889427519E0,-2.100465897E0,4.436494060E0
1.312886163E1,-1.340644050E0,-3.386233097E0,-3.778314049E0,5.247814603E0
1.313880263E1,-9.597514522E-1,-3.455959389E0,-3.519729123E0,5.025263302E0
1.314874363E1,-8.332282305E-3,-3.932040857E0,-1.540707411E0,4.223126100E0
1.315868463E1,7.519082250E-1,-4.005255598E0,5.103262711E-1,4.107051411E0
1.316862563E1,1.006777099E0,-3.561548994E0,2.207017515E0,4.309194551E0
1.317856663E1,1.306877110E0,-2.809783587E0,3.778694411E0,4.886854105E0
1.318850663E1,1.888349670E0,-2.637820483E0,4.750515101E0,5.752508592E0
1.319844763E1,2.301476360E0,-2.837274857E0,4.756219937E0,5.997378605E0
1.320838863E1,1.752611675E0,-1.975015785E0,4.354066570E0,5.092173478E0
1.321832963E1,6.769432658E-1,-3.987994033E-1,4.304857573E0,4.375967536E0
1.322827062E1,-6.296194106E-2,1.075877740E0,4.781624334E0,4.901572033E0
1.323821163E1,-5.012078306E-1,2.285529249E0,5.204849312E0,5.706602281E0
1.324815263E1,-1.093174388E0,3.112944177E0,5.162478048E0,6.126714559E0
1.325809363E1,-1.852398211E0,3.495231044E0,4.728646222E0,6.165072122E0
1.326803363E1,-2.715690778E0,4.110409586E0,4.591545387E0,6.734443734E0
1.327797463E1,-3.782489838E0,4.961926737E0,4.806061018E0,7.875669421E0
1.328791563E1,-4.801447565E0,5.594566820E0,5.276341463E0,9.066027568E0
1.329785663E1,-5.508246714E0,5.870363025E0,5.812897759E0,9.929336547E0
1.330779763E1,-5.875072373E0,6.035034066E0,6.491737862E0,1.063394433E1
1.331773863E1,-5.883329811E0,6.134961228E0,6.790776749E0,1.087961248E1
1.332767963E1,-5.535939127E0,6.095679633E0,6.689020579E0,1.060881372E1
1.333762063E1,-4.970865376E0,5.866020883E0,6.278600419E0,9.926758122E0
1.334756163E1,-4.402404040E0,5.514062939E0,5.477099181E0,8.932226311E0
1.335750163E1,-3.780564350E0,5.259061187E0,3.851221812E0,7.535403162E0
1.336744262E1,-3.473440810E0,4.985215028E0,2.106828983E0,6.430854399E0
1.337738363E1,-2.762662338E0,4.112650239E0,-1.281803226E-1,4.956069549E0
1.338732463E1,-1.375995146E0,2.759226807E0,-2.884739045E0,4.222370729E0
1.339726563E1,-5.193070096E-1,1.639249367E0,-3.999776757E0,4.353737746E0
1.340720663E1,2.735862502E-1,5.573109877E-1,-4.912268674E0,4.951346130E0
1.341714763E1,7.934806126E-1,-3.707801306E-1,-5.524157572E0,5.593157093E0
1.342708863E1,1.729951376E0,-1.595597563E0,-6.063698287E0,6.504390845E0
1.343702863E1,3.489520945E0,-2.894335495E0,-6.332392464E0,7.788011858E0
1.344696963E1,4.658350118E0,-3.713605837E0,-6.357190506E0,8.712345566E0
1.345691063E1,4.433455679E0,-3.168513776E0,-6.255731959E0,8.296336007E0
1.346685163E1,3.434935141E0,-1.971640188E0,-5.966271980E0,7.161183267E0
1.347679263E1,2.270558915E0,-1.109884561E0,-5.565445347E0,6.112402427E0
1.348673363E1,6.927439043E-1,-6.614007819E-1,-4.470147250E0,4.571603826E0
1.349667463E1,-8.378943086E-1,-8.535718632E-1,-2.828036841E0,3.070577172E0
1.350661562E1,-8.395891240E-1,-1.476641223E0,-1.884007382E0,2.536703178E0
1.351655563E1,8.492437541E-1,-2.834589230E0,-1.588010216E0,3.358256617E0
1.352649663E1,3.753344977E0,-4.706418031E0,1.051769670E0,6.110989170E0
1.353643763E1,7.907875021E0,-8.365013849E0,3.481371973E0,1.202613383E1
1.354637863E1,1.246594451E1,-1.110261122E1,-7.823402050E-1,1.671166672E1
1.355631963E1,9.561524910E0,-8.382373062E0,-3.384947294E-1,1.272012246E1
1.356626063E1,-6.034889055E0,-8.634688604E-1,1.085928987E1,1.245349914E1
1.357620163E1,-1.970178617E1,3.504897076E-1,1.109801180E1,2.261524016E1
1.358614263E1,-2.443947628E1,2.937176875E0,2.515401130E0,2.474352950E1
1.359608263E1,-2.079585636E1,4.519697725E0,-6.530363984E0,2.226074938E1
1.360602363E1,-8.886561511E0,3.407956088E-1,-7.843742759E0,1.185796853E1
1.361596463E1,1.495527437E0,-3.051739032E0,3.927509850E0,5.193750769E0
1.362590563E1,8.675816749E0,-5.874496422E0,1.333785909E1,1.696107277E1
1.363584663E1,1.258935702E1,-6.879297747E0,1.238643992E1,1.895364191E1
1.364578763E1,1.080379628E1,-4.916382775E0,7.430494886E0,1.400375264E1
1.365572863E1,4.898639691E0,-3.137923483E0,3.600639970E0,6.841625742E0
1.366566963E1,2.765235990E-2,-1.799482371E0,9.642339277E-1,2.041726849E0
1.367561063E1,-3.029478975E0,-3.894035125E-1,3.287348494E-1,3.072042408E0
1.368555063E1,-3.783832651E0,3.941929668E-1,1.241107775E0,4.001640431E0
1.369549162E1,-2.617630633E0,1.415090507E-1,2.128181260E0,3.376561922E0
1.370543292E1,-1.096478358E0,-1.279452646E-1,2.340505063E0,2.587778725E0
1.371537392E1,5.734393626E-2,-1.509458721E-2,1.805767836E0,1.806741169E0
1.372531492E1,8.119619071E-1,3.084412104E-1,8.215525103E-1,1.195561226E0
1.373525592E1,1.259979663E0,9.310515636E-1,1.699946389E-1,1.575850229E0
1.374519692E1,1.271774082E0,1.667803659E0,3.914740115E-2,2.097739469E0
1.375513792E1,8.204386157E-1,2.113107138E0,2.831432319E-1,2.284406135E0
1.376507792E1,2.441154063E-1,2.566635895E0,6.418767826E-1,2.656918884E0
1.377501892E1,-3.303080428E-1,2.950307382E0,1.352266853E0,3.262214385E0
1.378495992E1,-3.465191558E-1,3.142483141E0,9.398780818E-1,3.298279344E0
1.379490092E1,-6.689141616E-1,3.539653510E0,-7.437974060E-1,3.678291412E0
1.380484192E1,-5.915774256E-1,3.629203033E0,-1.025797946E0,3.817504412E0
1.381478292E1,-4.858302382E-1,3.468920327E0,-1.132616270E0,3.681339277E0
1.382472392E1,-3.220251694E-1,3.343296992E0,-1.185147509E0,3.561728458E0
1.383466492E1,-1.344783586E-1,3.152557894E0,-5.919416340E-1,3.210467349E0
1.384460592E1,-1.281291595E-1,3.088975856E0,-9.232716970E-3,3.091645866E0
1.385454592E1,-1.286521930E-1,3.071997296E0,2.196916048E-1,3.082528698E0
1.386448692E1,-4.350667584E-1,3.009179488E0,1.787107909E-1,3.045715322E0
1.387442792E1,-8.025037435E-1,2.764405686E0,-2.492673880E-1,2.889305329E0
1.388436892E1,-7.375408852E-1,2.457336232E0,-1.478859656E0,2.961333112E0
1.389430992E1,-3.002209023E-2,1.914463189E0,-2.897174318E0,3.472706388E0
1.390425092E1,1.019342766E0,1.314989099E0,-3.764698808E0,4.115970495E0
1.391419192E1,1.797614186E0,8.288270313E-1,-3.563662763E0,4.076525885E0
1.392413292E1,2.065896427E0,4.605559409E-1,-2.945412678E0,3.627050546E0
1.393407292E1,1.992095356E0,1.117321050E-1,-2.378884140E0,3.104837793E0
1.394401392E1,2.025376538E0,-3.684991318E-1,-2.012190774E0,2.878689536E0
1.395395492E1,2.212041735E0,-1.090008121E0,-2.308685392E0,3.378057812E0
1.396389592E1,2.346677530E0,-1.606484494E0,-3.067563352E0,4.183017186E0
1.397383692E1,2.268701108E0,-1.894588503E0,-3.057338326E0,4.252503728E0
1.398377792E1,2.055578138E0,-2.067854367E0,-1.919622188E0,3.490898524E0
1.399371892E1,1.794527587E0,-2.156975874E0,-1.204137146E0,3.053329403E0
1.400365992E1,1.576389459E0,-2.326997702E0,-2.176041305E0,3.554585460E0
1.401360092E1,1.528187645E0,-2.478927661E0,-4.755598962E0,5.576393217E0
1.402354092E1,1.614634197E0,-2.301141899E0,-5.897208762E0,6.532944880E0
1.403348192E1,2.565921950E0,-2.593021456E0,-3.742944242E0,5.226599977E0
1.404342292E1,4.186557291E0,-3.954116435E0,-1.121161355E0,5.866796529E0
1.405336392E1,5.763053754E0,-5.210385455E0,-9.105887939E-1,7.822408652E0
1.406330492E1,6.335994934E0,-5.325891353E0,-2.657398716E0,8.693199552E0
1.407324592E1,5.745334352E0,-4.797071509E0,-2.460477941E0,7.878750762E0
1.408318692E1,4.967632450E0,-4.713238809E0,-3.913507084E-1,6.858946538E0
1.409312792E1,3.839869735E0,-5.268548879E0,1.575169730E-1,6.521274298E0
1.410306892E1,2.200972517E0,-5.444059489E0,2.350885478E-1,5.876846975E0
1.411300892E1,1.017489198E0,-4.518128917E0,3.746410471E-1,4.646410345E0
1.412294992E1,2.091122192E-1,-3.185149689E0,6.297767007E-1,3.253540403E0
1.413289092E1,-1.672012778E-1,-2.389519640E0,1.610789798E0,2.886590403E0
1.414283192E1,1.972280458E-1,-2.411007573E0,2.105518037E0,3.207033306E0
1.415277292E1,1.195769196E0,-3.430695325E0,1.832175908E0,4.068956001E0
1.416271392E1,1.842898678E0,-4.837710242E0,1.774923773E0,5.472665742E0
1.417265492E1,1.200309851E0,-5.147430823E0,2.196094916E0,5.723602074E0
1.418259592E1,-7.628039266E-1,-4.166509527E0,2.215155816E0,4.780019535E0
1.419253592E1,-3.142522902E0,-3.653216963E0,8.851585221E-1,4.899484665E0
1.420247692E1,-4.773237088E0,-3.631793350E0,-1.939952079E0,6.303739312E0
1.421241792E1,-4.377634065E0,-3.101746759E0,-3.666857933E0,6.498489061E0
1.422235892E1,-2.179850474E0,-2.587608688E0,-3.296773621E0,4.724000754E0
1.423229992E1,-9.034679085E-1,-2.404979094E0,-1.180329477E0,2.827252443E0
1.424224092E1,-3.778998466E-1,-2.791805153E0,1.890130294E0,3.392576725E0
1.425218192E1,9.621702991E-1,-3.482822667E0,3.330857918E0,4.914309706E0
1.426212292E1,1.498641372E0,-3.355084394E0,2.616457096E0,4.510916203E0
1.427206392E1,1.184344467E0,-2.838301628E0,1.690016062E0,3.509242402E0
1.428200392E1,4.748268016E-1,-1.772174120E0,2.079106164E0,2.772858461E0
1.429194492E1,-9.730132297E-2,-4.927553880E-1,3.412835004E0,3.449596815E0
1.430188592E1,-3.880202074E-1,1.050621861E0,4.818541315E0,4.946989628E0
1.431182692E1,-5.830682650E-1,2.942586134E0,5.450720637E0,6.221666756E0
1.432176792E1,-6.831834143E-1,4.617089533E0,5.775787235E0,7.425898836E0
1.433170892E1,-8.255560988E-1,5.731355413E0,6.682200971E0,8.842046571E0
1.434164992E1,-1.235906969E0,6.443585456E0,7.599749560E0,1.004009228E1
1.435159092E1,-1.925347196E0,6.666963127E0,7.934818990E0,1.054119118E1
1.436153192E1,-2.719630632E0,6.322929330E0,7.329755546E0,1.005490639E1
1.437147192E1,-3.367005990E0,5.666948918E0,6.652045711E0,9.364867939E0
1.438141292E1,-3.562306501E0,5.354489501E0,6.027599332E0,8.814337135E0
1.439135392E1,-3.487924948E0,5.092892089E0,5.197781782E0,8.069702951E0
1.440129492E1,-3.164309628E0,5.065317789E0,4.175092655E0,7.287091217E0
1.441123592E1,-2.788333077E0,5.183566031E0,2.604180867E0,6.436296772E0
1.442117692E1,-2.451345175E0,5.185903748E0,8.450922310E-1,5.798005841E0
1.443111792E1,-1.935832424E0,4.698849980E0,-1.128314985E0,5.205740391E0
1.444105892E1,-1.076484388E0,3.882501492E0,-3.801563163E0,5.539360880E0
1.445099892E1,-9.152061939E-2,3.058812994E0,-5.963307441E0,6.702667275E0
1.446093992E1,6.469210294E-1,2.257083129E0,-6.329336125E0,6.750809348E0
1.447088092E1,8.531485248E-1,1.437190059E0,-5.003761227E0,5.275509841E0
1.448082192E1,1.097142309E0,3.543786907E-1,-3.481638021E0,3.667575332E0
1.449076292E1,1.079863202E0,-6.322635216E-1,-2.683611199E0,2.961018534E0
1.450070392E1,8.316179073E-1,-1.053092310E0,-2.405475522E0,2.754433562E0
1.451064492E1,8.323444238E-1,-1.179869301E0,-3.395689799E0,3.689931980E0
1.452058592E1,6.932184058E-1,-7.962171096E-1,-5.155154411E0,5.262141241E0
1.453052692E1,1.116201308E-1,-7.899062097E-2,-6.651914148E0,6.653319503E0
1.454046692E1,-5.260538194E-1,-2.398878694E-2,-7.330105210E0,7.348996562E0
1.455040792E1,-8.741295040E-1,-9.753635180E-1,-7.554858146E0,7.667549673E0
1.456034892E1,-1.540785179E0,-2.790985374E0,-5.114824995E0,6.027026883E0
1.457028992E1,-1.699440897E0,-5.945192767E0,-2.654349393E-1,6.189012208E0
1.458023092E1,3.685875709E0,-9.938307792E0,-2.915673155E0,1.099348859E1
1.459017192E1,9.725018907E0,-1.066947755E1,-9.328279477E-1,1.446664826E1
1.460011292E1,3.821040823E0,-7.966996803E0,1.334390277E1,1.600415984E1
1.461005392E1,-3.526286483E0,-4.126171925E0,1.295750707E1,1.404838000E1
1.461999492E1,-5.557344614E0,-8.105199838E-1,3.774986984E0,6.766945288E0
1.462993492E1,-5.747363335E0,-6.293808442E-1,1.924253767E0,6.093525918E0
1.463987592E1,-3.763590468E0,-2.521300678E0,4.079211767E0,6.096026489E0
1.464981692E1,-1.212782693E0,-3.941723846E0,6.997257721E0,8.122169929E0
1.465975792E1,3.284901434E-1,-3.694080815E0,5.870126798E0,6.943524138E0
1.466969892E1,2.662421474E-1,-3.626289951E0,5.173228154E0,6.323223325E0
1.467963992E1,2.717829689E-1,-3.613778663E0,4.975603375E0,6.155476517E0
1.468958092E1,9.861899301E-1,-3.098407999E0,3.272690986E0,4.613372844E0
1.469952254E1,1.383456486E0,-2.561583901E0,2.193896363E0,3.645386836E0
1.470946254E1,1.516202314E0,-2.252042829E0,2.447995013E0,3.655577375E0
1.471940354E1,1.523318668E0,-1.848213066E0,2.844884715E0,3.718838575E0
1.472934454E1,1.425445926E0,-1.450550362E0,2.500317945E0,3.222977236E0
1.473928554E1,1.432018489E0,-9.179005909E-1,1.586145831E0,2.325742257E0
1.474922654E1,1.551129780E0,-2.935237938E-1,6.799785554E-1,1.718874820E0
1.475916754E1,1.473851224E0,4.462127209E-1,-4.991446406E-2,1.540725373E0
1.476910854E1,1.172573145E0,1.317832015E0,-2.390344682E-1,1.780097323E0
1.477904954E1,6.258076108E-1,2.158632975E0,2.731906861E-2,2.247682766E0
1.478899054E1,-1.679934293E-1,2.861539047E0,2.705986154E-1,2.879210156E0
1.479893054E1,-7.193887889E-1,3.418985106E0,4.499347660E-1,3.522700765E0
1.480887154E1,-1.001059692E0,3.744904228E0,6.137781340E-1,3.924684928E0
1.481881254E1,-1.046173884E0,3.670721188E0,5.672831216E-1,3.858818987E0
1.482875354E1,-1.019018538E0,3.466052268E0,4.040177509E-1,3.635264426E0
1.483869454E1,-1.037755356E0,3.385541956E0,1.840624550E-1,3.545801672E0
1.484863554E1,-1.030427917E0,3.449194161E0,5.496411949E-2,3.600242090E0
1.485857654E1,-1.129323337E0,3.729374024E0,-2.730963998E-1,3.906172481E0
1.486851754E1,-9.312582627E-1,3.787263798E0,-3.701777212E-1,3.917606485E0
1.487845854E1,-4.624296811E-1,3.630307572E0,-3.872270326E-1,3.680070523E0
1.488839854E1,2.494621003E-1,3.251808532E0,-3.225195515E-1,3.277271568E0
1.489833954E1,9.047580966E-1,2.776715829E0,-3.502740915E-1,2.941331322E0
1.490828054E1,1.531422763E0,2.262514608E0,-3.714315104E-1,2.757206811E0
1.491822154E1,1.816652720E0,1.831954299E0,-2.979028467E-1,2.597119513E0
1.492816254E1,1.763507523E0,1.471401533E0,-3.789931297E-2,2.297045409E0
1.493810354E1,1.351414621E0,1.201834366E0,1.317798686E-1,1.813310028E0
1.494804454E1,7.849650201E-1,1.026612609E0,-1.589226071E-1,1.302059878E0
1.495798554E1,2.952612939E-1,8.999040306E-1,-9.024136555E-1,1.308188404E0
1.496792554E1,-1.577749814E-1,8.081641406E-1,-1.940473359E0,2.107951394E0
1.497786654E1,-3.355939257E-1,5.969235349E-1,-2.830155287E0,2.911824160E0
1.498780754E1,-2.359263808E-2,2.663096827E-1,-3.173565186E0,3.184806658E0
1.499774854E1,5.928274141E-1,-2.550327426E-1,-3.043482179E0,3.111152490E0
1.500768954E1,1.042605329E0,-5.831533420E-1,-2.386478503E0,2.668777499E0
1.501763054E1,1.213453807E0,-6.384481215E-1,-1.815535902E0,2.275138843E0
1.502757154E1,1.241386395E0,-4.603466105E-1,-2.388287193E0,2.730727907E0
1.503751254E1,1.454924225E0,-3.325136125E-2,-3.085118448E0,3.411138518E0
1.504745354E1,2.021573216E0,1.024443877E-1,-2.967823302E0,3.592384761E0
1.505739354E1,2.620561842E0,-8.415429711E-2,-1.763417330E0,3.159757426E0
1.506733454E1,3.282910457E0,-6.105615807E-1,-7.847304006E-1,3.430173219E0
1.507727554E1,3.818339995E0,-1.422650372E0,-1.711366585E0,4.419550881E0
1.508721654E1,3.881912093E0,-1.989375377E0,-3.345149390E0,5.496988296E0
1.509715754E1,3.685237486E0,-2.046309716E0,-4.435388476E0,6.118907559E0
1.510709854E1,3.716635864E0,-1.946704152E0,-4.038221031E0,5.823252381E0
1.511703954E1,4.441954899E0,-2.213685679E0,-2.191235880E0,5.425208042E0
1.512698054E1,5.872190865E0,-3.347266667E0,8.827564859E-1,6.816603165E0
1.513692054E1,7.027808254E0,-4.620576813E0,3.393852019E0,9.069622399E0
1.514686154E1,7.079975942E0,-5.137126860E0,2.611785756E0,9.128940604E0
1.515680254E1,5.773835435E0,-5.210870774E0,-1.137903980E-1,7.778386601E0
1.516674354E1,3.942428728E0,-5.133119763E0,-1.870447689E0,6.737227719E0
1.517668454E1,2.409417715E0,-4.620421861E0,-2.087296944E0,5.613412548E0
1.518662554E1,5.394359033E-1,-3.624721143E0,-1.554551132E0,3.980731551E0
1.519656654E1,-1.044706818E0,-2.594554596E0,-5.950799078E-1,2.859588429E0
1.520650754E1,-1.817833858E0,-2.582294739E0,1.008825964E-1,3.159579616E0
1.521644854E1,-1.931073813E0,-3.230857959E0,6.088975362E-1,3.812905117E0
1.522638854E1,-1.186594622E0,-4.101738750E0,1.983852682E0,4.708284086E0
1.523632954E1,3.517377958E-1,-4.581305158E0,3.684342277E0,5.889520731E0
1.524627054E1,1.513241138E0,-4.761285964E0,3.990389053E0,6.393977445E0
1.525621154E1,1.763696242E0,-4.782364592E0,2.637795925E0,5.739303343E0
1.526615254E1,1.319675496E0,-4.596636558E0,5.917100843E-1,4.818789462E0
1.527609354E1,5.656317218E-1,-4.114044215E0,-8.090583260E-1,4.230824320E0
1.528603454E1,-7.611778159E-1,-3.238386834E0,-1.505193908E0,3.651321631E0
1.529597554E1,-2.459722481E0,-2.124863550E0,-2.159264328E0,3.902268856E0
1.530591554E1,-3.030770917E0,-1.708704933E0,-2.103086619E0,4.065491142E0
1.531585654E1,-2.790762010E0,-2.223783821E0,-7.397718903E-1,3.644287246E0
1.532579754E1,-1.910802101E0,-2.807966858E0,9.415195414E-1,3.524528563E0
1.533573854E1,-1.180823566E0,-2.723275201E0,2.262094485E0,3.731975828E0
1.534567954E1,-6.865926334E-1,-2.128607522E0,2.810005782E0,3.591449836E0
1.535562054E1,-8.545851856E-2,-1.270113473E0,2.932439168E0,3.196825123E0
1.536556154E1,5.154618806E-1,-8.856795090E-1,3.509256468E0,3.655818663E0
1.537550254E1,1.155717523E0,-1.253255950E0,3.541050410E0,3.930059984E0
1.538544354E1,1.238973980E0,-1.101364583E0,3.484480645E0,3.858712977E0
1.539538354E1,9.006872651E-1,4.637426734E-2,3.778167284E0,3.884319265E0
1.540532454E1,5.565812552E-1,1.127667698E0,4.139406513E0,4.326211207E0
1.541526554E1,-3.784084082E-2,2.354437516E0,4.762227074E0,5.312590201E0
1.542520654E1,-6.817944083E-1,3.663012804E0,5.329037156E0,6.502395206E0
1.543514754E1,-1.342122226E0,4.747828013E0,5.626485600E0,7.483348390E0
1.544508854E1,-2.173304808E0,5.639859937E0,5.780629900E0,8.363429675E0
1.545502954E1,-2.985483939E0,6.188263861E0,5.842318609E0,9.018891877E0
1.546497054E1,-3.565644969E0,6.404694455E0,5.712803367E0,9.293549237E0
1.547491054E1,-4.056122574E0,6.337338624E0,5.497439305E0,9.318574466E0
1.548485154E1,-4.324134381E0,6.185812708E0,5.303614631E0,9.224464492E0
1.549479254E1,-4.269014726E0,6.004597555E0,4.920648319E0,8.859596966E0
1.550473354E1,-4.023219707E0,5.883809282E0,4.499094183E0,8.428959423E0
1.551467454E1,-3.595681823E0,5.764175835E0,3.842127345E0,7.804908287E0
1.552461554E1,-3.044268922E0,5.642278345E0,2.824198436E0,7.005638800E0
1.553455654E1,-2.398805311E0,5.475985286E0,1.497914563E0,6.163150965E0
1.554449754E1,-1.622835355E0,4.885812362E0,-2.571362785E-1,5.154694568E0
1.555443854E1,-1.025891063E0,3.766086352E0,-2.475581884E0,4.622160160E0
1.556437854E1,-6.151308873E-1,2.520867984E0,-4.662142915E0,5.335610364E0
1.557431954E1,-1.763087547E-1,1.534482465E0,-6.113827636E0,6.305918615E0
1.558426054E1,6.533094049E-1,6.221186024E-1,-6.600948063E0,6.662308913E0
1.559420154E1,2.090861406E0,-7.378209668E-1,-6.407858384E0,6.780614298E0
1.560414254E1,3.492174996E0,-2.246031892E0,-5.858086211E0,7.180328650E0
1.561408354E1,3.971355489E0,-3.279978663E0,-4.788862018E0,7.033002479E0
1.562402454E1,3.674579473E0,-3.906923558E0,-4.275182953E0,6.858846498E0
1.563396554E1,2.602487806E0,-4.048819694E0,-4.626022325E0,6.675774580E0
1.564390554E1,7.008352813E-1,-3.550115349E0,-4.529256168E0,5.797296828E0
1.565384654E1,-9.476301742E-1,-2.347021492E0,-3.823359244E0,4.585257762E0
1.566378754E1,-1.882007634E0,-1.187601659E0,-3.552495165E0,4.191965212E0
1.567372854E1,-2.453951571E0,-4.299235475E-1,-3.370178981E0,4.191040317E0
1.568366954E1,-2.529617465E0,-6.987656593E-2,-3.042415647E0,3.957289505E0
1.569361054E1,-2.225076933E0,2.821281552E-3,-3.525215566E0,4.168707246E0
1.570355100E1,-1.034678843E0,-4.725070649E-1,-3.837239365E0,4.002277999E0
1.571349200E1,1.438256299E0,-1.629217883E0,-4.466438361E0,4.967092079E0
1.572343300E1,4.575032558E0,-3.868010337E0,-9.914848763E-1,6.072517528E0
1.573337300E1,9.978645394E0,-7.703147628E0,3.950193538E0,1.321044573E1
1.574331400E1,1.233607201E1,-9.483035980E0,2.979873244E0,1.584254678E1
1.575325500E1,5.222491531E0,-6.305048545E0,1.775112931E0,8.377295558E0
1.576319600E1,-7.526622527E0,-1.443808522E0,8.600111094E0,1.151939845E1
1.577313700E1,-1.951286381E1,1.502136837E0,1.390634177E1,2.400821964E1
1.578307800E1,-2.320575822E1,2.743762091E0,6.510237867E0,2.425734202E1
1.579301900E1,-1.687278864E1,2.966407691E0,-1.820223615E0,1.722799422E1
1.580296000E1,-5.578446046E0,-1.459068586E0,-7.162328128E0,9.194938044E0
1.581290000E1,3.932840464E0,-5.578406870E0,-5.921989846E-1,6.851025978E0
1.582284100E1,1.070762011E1,-8.323547734E0,8.885345290E0,1.621369594E1
1.583278200E1,1.205912799E1,-8.621217788E0,1.150919385E1,1.876724559E1
1.584272300E1,7.074932134E0,-5.759811473E0,9.111821986E0,1.289400608E1
1.585266400E1,1.349803421E0,-3.240130473E0,5.419940894E0,6.457257471E0
1.586260500E1,-1.635176781E0,-1.645470804E0,2.610532697E0,3.492314166E0
1.587254600E1,-1.903976500E0,-4.108861828E-1,9.964667040E-1,2.187898503E0
1.588248700E1,-7.547194201E-1,-1.746154010E-1,1.286977428E0,1.502132764E0
1.589242800E1,1.636039245E-1,-3.640534937E-2,2.249553085E0,2.255788260E0
1.590236800E1,4.448637682E-1,2.322940904E-1,2.258608960E0,2.313693746E0
1.591230900E1,-7.537031740E-2,6.996602833E-1,1.480831922E0,1.639532976E0
1.592225000E1,-7.647082186E-1,1.447625000E0,4.532317185E-1,1.698768904E0
1.593219100E1,-1.320436950E0,2.213727779E0,-1.928286007E-1,2.584826356E0
1.594213200E1,-1.724340095E0,2.827632213E0,-2.485233298E-1,3.321237201E0
1.595207300E1,-1.728680191E0,3.088722671E0,2.398571715E-1,3.547685782E0
1.596201400E1,-1.447120385E0,3.153486432E0,1.068978610E0,3.630612807E0
1.597195500E1,-9.601952559E-1,3.147480757E0,1.509781487E0,3.620504134E0
1.598189500E1,-2.607942966E-1,2.980888320E0,1.528855543E0,3.360224414E0
1.599183600E1,5.337569413E-1,2.841446260E0,1.253749601E0,3.151285672E0
1.600177700E1,1.084350648E0,2.899104484E0,8.360429339E-1,3.206180114E0
1.601171800E1,1.367834480E0,2.873962042E0,4.208217716E-1,3.210563805E0
1.602165900E1,1.468623228E0,2.877987265E0,2.084814508E-1,3.237766113E0
1.603160000E1,1.400584735E0,2.858060539E0,1.572573566E-1,3.186671856E0
1.604154100E1,1.208330038E0,2.782447270E0,-4.157044347E-1,3.061843312E0
1.605148200E1,1.325481635E0,2.706097251E0,-6.107557082E-1,3.074554672E0
1.606142200E1,1.604889081E0,2.465617644E0,-4.462453922E-1,2.975579654E0
1.607136300E1,1.923736289E0,2.142204638E0,-3.297057065E-1,2.898017921E0
1.608130400E1,2.114802538E0,1.909501242E0,-1.828494136E-1,2.855174019E0
1.609124500E1,2.053455306E0,1.592595602E0,1.489087204E-1,2.602923981E0
1.610118600E1,1.589930880E0,1.229410420E0,1.994426787E-1,2.019680065E0
1.611112700E1,7.503997895E-1,1.090790479E0,-7.381583512E-1,1.515850080E0
1.612106800E1,7.284315079E-2,1.067282917E0,-2.428858538E0,2.654006923E0
1.613100900E1,-1.856309706E-1,9.078971744E-1,-3.957334743E0,4.064386104E0
1.614095000E1,3.658816257E-1,3.554627645E-1,-4.355599126E0,4.385369641E0
1.615089000E1,1.604628734E0,-2.714645880E-1,-4.224308084E0,4.526953190E0
1.616083100E1,2.667952355E0,-9.186139512E-1,-4.264643347E0,5.113609707E0
1.617077200E1,2.615310750E0,-1.309145976E0,-3.997866472E0,4.953448277E0
1.618071300E1,1.773524827E0,-1.328399688E0,-3.583032249E0,4.212856055E0
1.619065400E1,8.805861457E-1,-1.453495604E0,-3.435377775E0,3.832740780E0
1.620059500E1,-2.309211642E-2,-1.757702846E0,-3.379200650E0,3.809074635E0
1.621053600E1,-5.056846051E-1,-2.009895596E0,-3.330711445E0,3.922886177E0
1.622047700E1,-2.630796808E-1,-2.330186774E0,-2.930776805E0,3.753456274E0
1.623041700E1,6.416111729E-1,-2.757879608E0,-2.184084004E0,3.576001645E0
1.624035800E1,1.504181024E0,-2.994636294E0,-1.962612087E0,3.883587682E0
1.625029900E1,2.190709484E0,-2.887470864E0,-2.281600943E0,4.282802692E0
1.626024000E1,3.415766506E0,-2.962912225E0,-2.091809240E0,4.982165751E0
1.627018100E1,5.290916818E0,-4.083480234E0,-5.929434814E-2,6.683721076E0
1.628012200E1,6.463858337E0,-5.380531245E0,1.890901834E0,8.620156079E0
1.629006300E1,6.303677373E0,-5.920477756E0,1.468352795E0,8.771799429E0
1.630000400E1,5.136601780E0,-5.448807428E0,-3.127659573E-1,7.494798381E0
1.630994400E1,3.584648420E0,-4.258038917E0,-1.562837952E0,5.781268215E0
1.631988500E1,2.066458929E0,-3.351220554E0,-1.427294816E0,4.187851740E0
1.632982600E1,7.404063132E-1,-2.988380942E0,-3.908985724E-1,3.103453537E0
1.633976700E1,-1.852412537E-1,-2.908334899E0,6.830401576E-1,2.993203980E0
1.634970800E1,-4.106096095E-1,-2.813871961E0,1.402651141E0,3.170789473E0
1.635964900E1,-2.090964317E-2,-2.727860588E0,2.416723226E0,3.644476883E0
1.636959000E1,7.049711631E-1,-2.655620577E0,3.985544050E0,4.840853888E0
1.637953100E1,1.528856566E0,-2.565827810E0,5.145089014E0,5.949186138E0
1.638947100E1,1.916196012E0,-2.040428587E0,4.799662410E0,5.556250104E0
1.639941200E1,1.742094288E0,-1.266826168E0,3.637990229E0,4.227849803E0
1.640935300E1,1.057964502E0,-1.225097514E0,1.955249273E0,2.538336566E0
1.641929400E1,1.170068783E-1,-1.611240619E0,-1.095933397E-1,1.619196604E0
1.642923500E1,-6.904620284E-1,-1.387715598E0,-1.779644669E0,2.360005835E0
1.643917600E1,-1.944784511E0,-5.277913195E-1,-2.843969918E0,3.485529424E0
1.644911700E1,-2.582018166E0,7.099338412E-2,-2.539554808E0,3.622319215E0
1.645905800E1,-2.005536204E0,1.884756410E-1,-4.398540200E-1,2.061836582E0
1.646899900E1,-8.831714921E-1,-1.940141237E-1,1.663801240E0,1.893638807E0
1.647893900E1,1.218448645E-1,-6.393854302E-1,2.978443015E0,3.048734605E0
1.648888000E1,1.011928496E0,-9.693145734E-1,3.231554947E0,3.522288659E0
1.649882100E1,1.554348819E0,-8.532426649E-1,2.778122377E0,3.295752908E0
