"Time (s)","Linear Acceleration x (m/s^2)","Linear Acceleration y (m/s^2)","Linear Acceleration z (m/s^2)","Absolute acceleration (m/s^2)"
3.791125026E-3,7.645746097E-2,1.642535502E0,2.317072638E0,2.841231111E0
1.373512496E-2,1.124657844E-1,1.438372951E0,2.882027691E0,3.222987575E0
2.367812500E-2,1.284033939E-1,1.099880560E0,3.162547277E0,3.350810344E0
3.362212493E-2,1.976085533E-1,9.846880728E-1,3.374374943E0,3.520662722E0
4.356512497E-2,2.280607063E-1,9.566892654E-1,3.535994908E0,3.670221522E0
5.350912502E-2,3.685909331E-2,1.210995199E0,3.568009583E0,3.768097709E0
6.345212494E-2,-1.598046961E-1,1.344681845E0,3.647804196E0,3.891038712E0
7.339612499E-2,-4.983206217E-1,1.216941233E0,3.657068524E0,3.886311825E0
8.333912503E-2,-5.241055271E-1,9.589100379E-1,3.262795451E0,3.440934352E0
9.328312497E-2,-2.722011910E-1,5.718688005E-1,2.617737637E0,2.693265258E0
1.032261250E-1,-3.644554898E-2,1.916091639E-1,1.866929419E0,1.877090250E0
1.131701249E-1,5.416129678E-3,-2.969508469E-2,1.064178046E0,1.064606052E0
1.231131250E-1,5.582044423E-2,-1.349209929E-1,6.233202052E-1,6.401934665E-1
1.330571250E-1,1.879245409E-1,-2.449480498E-1,6.239388406E-1,6.961428424E-1
1.430001250E-1,2.295188557E-1,-4.694314295E-1,5.497230560E-1,7.584459179E-1
1.529441250E-1,1.205885902E-1,-7.101700687E-1,1.546775651E-1,7.367552401E-1
1.628881249E-1,-3.737116322E-2,-1.009518274E0,-2.932916594E-1,1.051923831E0
1.728311250E-1,1.428430930E-2,-1.893734225E0,-8.886159807E-1,2.091906240E0
1.827751250E-1,-5.203441595E-1,-2.333248960E0,-1.129979103E0,2.644175018E0
1.927181249E-1,-9.652165523E-1,-1.966985804E0,-1.371641017E0,2.584971030E0
2.026621250E-1,-6.855790186E-1,-2.468041314E0,-2.371002678E0,3.490401154E0
2.126050000E-1,-8.943287104E-2,-2.851468973E0,-2.321044067E0,3.677787256E0
2.225489999E-1,2.952548620E-1,-2.708416257E0,-1.493084178E0,3.106765910E0
2.324920000E-1,4.574268034E-1,-2.217725521E0,-1.271997446E-1,2.267978294E0
2.424360000E-1,3.609661639E-2,-1.567068413E0,2.322269059E0,2.801774430E0
2.523790000E-1,-8.563612774E-1,-5.417316663E-1,1.349914518E0,1.687926847E0
2.623230000E-1,-3.832806006E-1,1.246994167E0,-3.684134116E0,3.908291527E0
2.722659999E-1,-6.489196077E-1,2.061057563E0,-1.628694558E0,2.705864169E0
2.822100000E-1,-2.025373468E0,-5.881094420E-1,-1.382340837E0,2.521681302E0
2.921530000E-1,-1.972001545E0,-1.884793248E0,-1.460103543E0,3.094048810E0
3.020969999E-1,-8.772443157E-1,-2.292315527E0,-1.935257642E0,3.125618372E0
3.120400000E-1,6.942466387E-1,-2.234300038E0,-2.130498512E0,3.164348111E0
3.219840000E-1,3.006022869E0,-2.873574371E0,-3.608638961E0,5.505985680E0
3.319270000E-1,4.196330034E0,-3.161882449E0,-3.182426056E0,6.142843151E0
3.418710000E-1,4.071673244E0,-3.293506197E0,-1.961469541E0,5.592232902E0
3.518139999E-1,3.261214364E0,-3.261352358E0,-2.113833947E0,5.073483250E0
3.617580000E-1,3.281160970E0,-4.623262439E0,-4.106160414E0,7.000080445E0
3.717010000E-1,1.994340833E0,-4.333903617E0,-4.167517002E0,6.334691301E0
3.816450000E-1,6.616393483E-1,-3.539718415E0,-3.957944022E0,5.350952622E0
3.915880000E-1,-4.489638358E-1,-2.546201046E0,-3.808429549E0,4.603134141E0
4.015319999E-1,-4.706175372E-1,-1.109325567E0,-4.408809373E0,4.570523402E0
4.114750000E-1,1.460875375E0,1.269988343E0,-5.746641204E0,6.063902406E0
4.214190000E-1,2.393788692E0,3.508572636E0,-4.242770083E0,6.003449360E0
4.313619999E-1,-1.523725927E-2,4.948985680E0,-1.159759557E0,5.083083086E0
4.413060000E-1,-4.592364582E0,6.569284805E0,-8.190920019E-1,8.057060693E0
4.512490000E-1,-6.014665875E0,4.352124125E0,-2.615029791E0,7.871186112E0
4.611930000E-1,-1.312559581E-1,-3.731409439E0,-2.450159944E0,4.465862546E0
4.711360000E-1,5.079185631E0,-7.266086385E0,-1.217904854E-1,8.866170027E0
4.810799999E-1,6.649299858E0,-6.945287669E0,4.016167672E0,1.042016373E1
4.910230000E-1,2.158425983E0,-5.051021347E0,5.073858232E0,7.477677229E0
5.009670000E-1,-1.785939635E0,-2.990215799E0,3.933083416E0,5.253581260E0
5.109100000E-1,-8.519252872E-1,-2.877662452E0,2.185597410E0,3.712620896E0
5.208540000E-1,-6.504009998E-1,-2.416857128E0,6.194206971E-1,2.578352543E0
5.307969999E-1,-1.205411108E0,-1.714659445E0,-2.212843680E-1,2.107614700E0
5.407410000E-1,-2.486660896E0,-9.098562840E-1,-1.581262529E0,3.084106362E0
5.506840000E-1,-5.805327954E0,-3.249376675E-1,-1.720043269E0,6.063494536E0
5.606279999E-1,-5.860295874E0,-7.440081981E-1,7.178047782E-1,5.950786471E0
5.705710000E-1,-3.362981351E0,-1.208287938E0,2.476657187E0,4.347807969E0
5.805150000E-1,-2.990904308E0,-1.242518416E0,4.040761646E0,5.178524430E0
5.904580000E-1,-3.430691524E0,-1.023458329E0,4.846275828E0,6.025238642E0
6.004020000E-1,-3.593378897E0,-4.568372579E-1,4.910097603E0,6.101649830E0
6.103449999E-1,-2.405861146E0,6.098292900E-1,3.157890555E0,4.016507484E0
6.202890000E-1,1.710809346E0,1.845531826E0,-2.073247839E0,3.260554084E0
6.302320000E-1,-6.844224393E-2,3.685979790E0,-7.529319263E-1,3.762716816E0
6.401760000E-1,-2.334889689E0,3.439262373E0,2.554350895E0,4.879031054E0
6.501190000E-1,-9.722054368E-1,1.537921651E0,3.582653350E0,4.018182604E0
6.600629999E-1,-6.830515596E-1,6.531044599E-1,4.658391341E0,4.753284628E0
6.700060000E-1,-1.744526145E0,1.039259552E0,7.088385408E0,7.373509312E0
6.799500000E-1,-2.451339328E0,1.411132673E0,8.897484695E0,9.336251593E0
6.898929999E-1,-2.545579487E0,1.864247155E0,6.528327398E0,7.250824160E0
6.998370000E-1,-2.397536173E0,2.298398093E0,3.470093279E0,4.803369740E0
7.097800000E-1,-2.132730979E0,1.907558943E0,2.690055415E0,3.927304506E0
7.197240000E-1,-1.506998212E0,1.519712398E0,2.925876546E0,3.625096267E0
7.296670000E-1,-1.089591799E0,9.343090475E-1,2.203851832E0,2.630039274E0
7.396109999E-1,-2.024704254E0,1.421467188E0,3.862456067E0,4.586781350E0
7.495540000E-1,-2.001296096E0,1.462764903E0,5.632312936E0,6.153683143E0
7.594980000E-1,-1.378706793E0,8.968626744E-1,-2.942668580E0,3.371126436E0
7.694410000E-1,-4.500286138E-1,2.108028393E0,-4.271236083E0,4.784325149E0
7.793850000E-1,-2.724235314E-1,3.088742259E0,-4.849935016E0,5.756423628E0
7.893289999E-1,-3.419276297E-2,3.488758761E0,-5.475891731E0,6.492918996E0
7.992720000E-1,7.897834182E-3,3.738768745E0,-5.358312410E0,6.533755887E0
8.092150000E-1,2.315772218E-1,3.714514495E0,-5.832630942E0,6.918874883E0
8.191589999E-1,9.433219457E-1,2.994484851E0,-5.795074861E0,6.590879187E0
8.291020000E-1,2.257639784E0,2.323786850E0,-5.926384029E0,6.754180215E0
8.390460000E-1,3.263052728E0,1.505689021E0,-5.743346883E0,6.775001546E0
8.489890000E-1,4.355360559E0,3.894622770E-1,-5.646377243E0,7.141598031E0
8.589330000E-1,5.270267376E0,-1.062823100E0,-5.547974451E0,7.725628238E0
8.688759999E-1,6.335282158E0,-2.605580983E0,-5.401583560E0,8.723643576E0
8.788200000E-1,7.849453150E0,-3.771536834E0,-5.084546358E0,1.008419637E1
8.887630000E-1,8.671189848E0,-4.963789660E0,-5.109011693E0,1.122188672E1
8.987070000E-1,8.675157183E0,-5.998760279E0,-4.745004977E0,1.156540312E1
9.086510000E-1,8.377623369E0,-6.397920456E0,-3.594720833E0,1.113732362E1
9.185939999E-1,7.707662264E0,-6.499005951E0,-2.424764025E0,1.036940772E1
9.285380000E-1,6.823380239E0,-6.361846644E0,-1.136774883E0,9.398077875E0
9.384810000E-1,5.524943438E0,-5.859156252E0,3.517847928E-1,8.060922064E0
9.484250000E-1,4.111538098E0,-5.427303123E0,1.958941789E0,7.085041825E0
9.583680000E-1,3.196479839E0,-4.723056868E0,3.426893465E0,6.653446352E0
9.683120000E-1,2.363817034E0,-3.653303502E0,4.354456580E0,6.155936123E0
9.782550000E-1,1.233475989E0,-2.984942780E0,4.802467904E0,5.787490335E0
9.881990000E-1,6.218747735E-2,-2.677350877E0,5.192518119E0,5.842458337E0
9.981419999E-1,-1.073406706E0,-2.207108439E0,5.476685783E0,6.001467885E0
1.008086000E0,-2.307827606E0,-1.747735097E0,5.342033762E0,6.076016042E0
1.018029000E0,-4.432955450E0,-1.288881573E0,4.699363950E0,6.587589185E0
1.027973000E0,-6.181775206E0,-1.091897649E0,4.011479959E0,7.449735340E0
1.037916000E0,-7.654966571E0,-9.031995213E-1,3.496845460E0,8.464172184E0
1.047860000E0,-9.409131852E0,-7.921801919E-1,2.798168678E0,9.848302372E0
1.057803000E0,-1.099223684E1,-9.103085661E-1,2.188622174E0,1.124490993E1
1.067747000E0,-1.222560875E1,-7.901149553E-1,1.516049702E0,1.234456146E1
1.077690000E0,-1.291592518E1,-2.086216378E-1,3.929995501E-1,1.292358677E1
1.087634000E0,-1.348023412E1,8.579613680E-1,-7.652707207E-1,1.352917029E1
1.097577000E0,-1.374910429E1,1.884030186E0,-1.561935142E0,1.396520963E1
1.107521000E0,-1.389914969E1,2.445294476E0,-1.879367616E0,1.423719951E1
1.117464000E0,-1.486184697E1,3.863095168E0,-2.467435543E0,1.555269230E1
1.127408000E0,-1.654833132E1,4.731563982E0,-4.908051662E0,1.789759588E1
1.137351000E0,-1.746896607E1,3.198281366E0,-5.417194456E0,1.856716928E1
1.147295000E0,-1.544160542E1,2.287136648E0,-4.013791364E0,1.611783773E1
1.157238000E0,-1.121009006E1,1.308055471E0,-8.701608525E-1,1.131964258E1
1.167182000E0,-9.193137460E0,-3.269552493E-1,1.484840042E0,9.318016207E0
1.177125000E0,-7.931162726E0,-2.138702740E0,4.395509881E-1,8.226213994E0
1.187069000E0,-7.263687857E0,-3.086256900E0,1.738175485E0,8.081299212E0
1.197012000E0,-6.830620846E0,-3.301712764E0,4.228116083E0,8.685370109E0
1.206955500E0,-5.616331326E0,-1.895508855E0,4.254731147E0,7.296497003E0
1.216898500E0,-4.802953808E0,-1.857999551E0,2.903362719E0,5.911856112E0
1.226842500E0,-4.376067304E0,-2.015188496E0,1.863512599E0,5.165619898E0
1.236785500E0,-2.503714008E0,-3.579872414E0,2.072809882E0,4.835350157E0
1.246729500E0,4.659285965E0,-2.504713882E0,-1.168083068E1,1.282280557E1
1.256672500E0,5.198004561E0,-2.225896420E0,-2.375868497E1,2.442230492E1
1.266616500E0,-1.586554259E0,-1.052860175E0,1.020094718E1,1.037713796E1
1.276559500E0,-9.080971491E-1,-9.591480196E-2,1.545493707E1,1.548189007E1
1.286503500E0,3.089393932E-1,-1.749807935E0,6.052639448E0,6.308067505E0
1.296446500E0,5.565731860E0,-4.900363743E0,-7.282144008E0,1.039329386E1
1.306390500E0,1.031867736E1,-4.988209972E0,-1.241371134E1,1.689548964E1
1.316333500E0,5.887523434E0,-2.613971445E0,1.494475231E0,6.612808413E0
1.326277500E0,5.245022607E-1,-6.729654050E-1,9.508195964E0,9.546401183E0
1.336220500E0,6.237406200E-1,5.482554048E-1,2.559487674E0,2.690838811E0
1.346164500E0,3.679102002E0,2.040249662E0,-8.140321139E0,9.163145664E0
1.356107500E0,4.923357334E0,1.769282087E0,6.351396938E-1,5.270029314E0
1.366051500E0,5.609562589E0,1.024173151E0,1.272401488E0,5.842527589E0
1.375994500E0,3.183831727E0,1.282554594E0,-4.782797286E0,5.887009481E0
1.385938500E0,7.994786865E-1,2.465836329E0,-1.060748800E0,2.800839694E0
1.395881500E0,5.506118327E-1,3.097589974E0,1.272028875E0,3.393566633E0
1.405824500E0,6.388591808E-1,2.501685609E0,2.371320766E-1,2.592836971E0
1.415768500E0,-6.413571113E-1,1.787199710E0,-4.320150965E-1,1.947320927E0
1.425711500E0,-2.434056128E0,1.506099495E0,1.005382392E0,3.033769714E0
1.435655500E0,-3.132031243E0,2.273091636E0,4.106943356E0,5.643008863E0
1.445598500E0,-1.689985657E0,2.602302741E0,1.589776075E-1,3.106976820E0
1.455542500E0,-1.451185369E0,1.753044369E0,-2.306395038E0,3.240148393E0
1.465485500E0,-1.865011532E0,1.384335322E0,-1.484769437E0,2.756663306E0
1.475429500E0,-4.263087988E-1,2.648785182E0,-2.929764360E0,3.972571124E0
1.485372500E0,5.369872355E-1,3.267499536E0,-2.923787336E0,4.417402052E0
1.495316500E0,-1.412076852E0,2.756240634E0,-2.197870715E0,3.797559631E0
1.505259500E0,-2.137587091E0,2.717895178E0,-7.678040269E-1,3.541998842E0
1.515203500E0,-1.205398829E0,3.435795851E0,-6.019626653E-1,3.690533636E0
1.525146500E0,-2.798045302E0,2.427378607E0,2.269586231E0,4.344219846E0
1.535090500E0,-8.271599901E-1,4.038337390E0,3.266963346E0,5.259792014E0
1.545033500E0,1.734687620E-1,6.434723416E0,-1.201498736E0,6.548233049E0
1.554977500E0,4.471628934E0,3.294930578E0,-1.036741507E1,1.176160397E1
1.564920500E0,4.642829561E-1,9.296032083E-1,-4.858009436E0,4.967894571E0
1.574864500E0,-5.831479041E0,2.443998148E0,5.648936570E-2,6.323168968E0
1.584807500E0,1.728796551E0,2.115929589E0,-3.182153868E0,4.194281677E0
1.594751500E0,3.710329642E0,3.968407030E0,-1.257929630E0,5.576485216E0
1.604694500E0,3.175651472E0,4.672979559E0,-1.141981097E0,5.764166988E0
1.614638500E0,2.765131910E0,3.749232337E0,-8.025151455E-1,4.727232611E0
1.624581500E0,2.104614642E0,2.081203560E0,-8.501120657E-1,3.079529441E0
1.634525500E0,1.051885445E0,1.253992115E0,-1.308324443E0,2.095393056E0
1.644468500E0,-4.469635034E-1,8.152901423E-1,-1.530111086E0,1.790450872E0
1.654412500E0,-2.805184168E0,9.718382317E-1,-1.297659121E0,3.239976382E0
1.664355500E0,-2.695672250E0,4.273437560E-2,-1.900618444E0,3.298609643E0
1.674299500E0,-2.010386762E0,-1.672137031E0,-1.296903953E0,2.918845156E0
1.684242500E0,-9.939161485E-1,-2.586242194E0,3.201191233E-1,2.789084841E0
1.694186500E0,-4.947726774E-1,-2.682804283E0,6.934446931E-1,2.814800946E0
1.704129500E0,-6.218443680E-1,-2.071218270E0,1.404640948E0,2.578691865E0
1.714073500E0,-8.723461032E-2,-1.464557952E0,2.861526183E0,3.215722620E0
1.724016500E0,6.296878231E-1,-1.084839182E0,3.901107917E0,4.097807436E0
1.733960500E0,5.235240215E-1,-6.302345377E-1,3.659539558E0,3.750133697E0
1.743903500E0,-3.980609000E-2,1.217653424E-1,2.741719658E0,2.744710915E0
1.753847500E0,9.263422161E-1,2.484803528E-1,2.332889064E0,2.522344896E0
1.763790500E0,2.885397441E0,-5.220768356E-1,1.494419097E0,3.291104838E0
1.773734500E0,3.224329543E0,-1.441031095E0,8.049978733E-2,3.532612607E0
1.783677500E0,2.369807507E0,-2.250343629E0,-7.996722293E-1,3.364447910E0
1.793621500E0,2.636134146E0,-1.921300923E0,2.682761014E-2,3.262103646E0
1.803564500E0,2.968305112E0,-1.696765503E0,-9.098460513E-1,3.538031691E0
1.813508500E0,5.208906110E0,-6.194072485E-1,-3.670251949E-1,5.258429014E0
1.823451500E0,5.722290475E0,1.215703962E0,-9.530976132E-2,5.850780149E0
1.833395500E0,3.785900812E0,3.203178409E0,-7.726242522E-1,5.018998417E0
1.843338500E0,3.114612973E-1,3.226915766E0,5.695776422E-2,3.242412325E0
1.853282500E0,-7.757120937E-1,1.570600716E0,-3.773354441E-1,1.791897848E0
1.863225500E0,1.286053568E0,-5.015759128E-1,-1.818133235E0,2.282787908E0
1.873169500E0,-1.052138629E0,-2.362807805E0,3.248817535E-1,2.606799680E0
1.883112500E0,-6.199296972E0,-4.523393165E0,2.618652141E0,8.108619347E0
1.893056500E0,-8.811105532E0,-6.149830112E0,2.701803056E0,1.107951853E1
1.902999500E0,-6.993068776E0,-4.866161624E0,1.735775203E0,8.694564705E0
1.912943500E0,-5.220484766E0,-2.031602799E0,-4.551721171E-2,5.602048103E0
1.922886500E0,-2.769397454E0,-1.042588956E0,-2.136672002E0,3.649920716E0
1.932830500E0,-1.111109553E0,-2.684801692E-1,-2.136372478E0,2.422959638E0
1.942773500E0,-4.292002469E-1,7.024891663E-1,-1.918996389E0,2.088121410E0
1.952717500E0,7.244068694E-1,1.598387269E0,-9.712073171E-1,2.005704572E0
1.962660500E0,1.766848476E0,2.188870681E0,7.597357464E-1,2.913778783E0
1.972604500E0,1.659449158E0,2.281571853E0,2.288323048E0,3.632597418E0
1.982547500E0,1.659179601E0,2.345757324E0,2.765211724E0,3.987712408E0
1.992491500E0,3.511443619E0,2.820040188E0,2.987721084E0,5.404566609E0
2.002434500E0,3.921208305E0,2.859888378E0,2.645939927E0,5.527733189E0
2.012377500E0,2.689002331E0,2.116927709E0,2.621286312E0,4.310830360E0
2.022321500E0,2.386366822E0,2.480736789E0,3.150939969E0,4.666607367E0
2.032264500E0,2.109116414E0,3.072744570E0,3.063859141E0,4.824662068E0
2.042208500E0,1.712020597E0,3.006243017E0,2.635782144E0,4.349236612E0
2.052151500E0,1.120250505E0,3.067427697E0,1.928798808E0,3.792669075E0
2.062095500E0,6.899606296E-1,2.920515819E0,1.106401083E0,3.198371722E0
2.072038500E0,1.111382033E0,1.427150974E0,3.270020270E-1,1.838167635E0
2.081982500E0,1.882347065E0,9.221158487E-1,-7.825641534E-1,2.237394638E0
2.091925500E0,1.815491755E0,1.056390724E0,-1.796294469E0,2.763809960E0
2.101869500E0,1.447135003E0,1.248530231E0,-2.282437533E0,2.977003283E0
2.111812500E0,1.311228170E0,1.748160190E0,-2.842451981E0,3.585375382E0
2.121756500E0,3.975726575E-1,2.116337725E0,-5.545937866E0,5.949317288E0
2.131699500E0,-3.078316382E-1,1.106119539E0,-5.954655901E0,6.064337363E0
2.141643500E0,-3.366382969E0,1.413755588E0,2.528413231E0,4.441183696E0
2.151586500E0,-2.867578344E0,1.675914917E0,1.909310330E0,3.831078478E0
2.161530500E0,-3.971659251E0,1.328138902E0,1.966865351E0,4.626725566E0
2.171473500E0,-4.281478651E0,1.021374673E0,1.782111755E0,4.748703820E0
2.181417500E0,-4.115285579E0,3.197257519E-1,3.547204605E-1,4.142900742E0
2.191360500E0,-3.380502241E0,2.115522623E-3,-1.891239803E0,3.873575592E0
2.201304500E0,-2.590696895E0,3.336456335E-1,-4.829366266E0,5.490519861E0
2.211248250E0,-2.204072272E0,1.297603573E0,-7.351103146E0,7.783342924E0
2.221192250E0,-1.837106865E0,6.833401197E-1,-8.749951258E0,8.966803353E0
2.231135250E0,-1.040387480E0,-7.737433362E-1,-9.824371287E0,9.909558821E0
2.241079250E0,1.965424597E-1,-2.511753345E0,-7.489111469E0,7.901539369E0
2.251022250E0,1.260072049E0,-4.571590009E0,-2.733718036E0,5.473612252E0
2.260966250E0,2.356733133E0,-6.544390284E0,1.545576387E0,7.125450275E0
2.270909250E0,3.367153047E0,-7.455351985E0,4.845694908E0,9.507931005E0
2.280853250E0,3.808572806E0,-7.541621220E0,7.026237692E0,1.098859834E1
2.290796250E0,3.539424300E0,-7.765736809E0,7.450563115E0,1.132894891E1
2.300740250E0,3.492035540E0,-8.174049048E0,6.716748660E0,1.114109970E1
2.310683250E0,3.660215496E0,-7.807309928E0,4.868694638E0,9.902295353E0
2.320626250E0,2.996553011E0,-4.511402864E0,1.088744538E0,5.524260170E0
2.330570250E0,4.280227346E0,-1.779573771E0,-4.290169367E-1,4.655242687E0
2.340513250E0,5.445565732E0,-1.775459670E0,-1.071757499E0,5.827101107E0
2.350457250E0,4.647419918E0,-1.555649970E0,-3.287757799E-1,4.911888866E0
2.360400250E0,3.290050785E0,-1.460052087E0,1.709253986E0,3.984687623E0
2.370344250E0,1.961856042E0,-1.083486722E0,3.699408798E0,4.325326352E0
2.380287250E0,9.801515105E-1,-4.356853938E-1,5.227795540E0,5.336699819E0
2.390231250E0,-6.282467768E-1,9.515349448E-2,6.153290495E0,6.186011002E0
2.400174250E0,-1.988630442E0,1.444989660E0,5.466718619E0,5.993968519E0
2.410118250E0,-2.754127450E0,2.204569286E0,4.651265047E0,5.837774429E0
2.420061250E0,-2.846563159E0,1.065907068E0,3.596494879E0,4.708912306E0
2.430005250E0,-2.661452006E0,4.510308266E-2,2.201350101E0,3.454171874E0
2.439948250E0,-2.669472046E0,-7.290483892E-1,2.128751364E0,3.491299891E0
2.449892250E0,-2.374554861E0,-1.284285954E0,2.506200536E0,3.683604529E0
2.459835250E0,-1.347921202E0,-1.849613475E0,2.291665317E0,3.238779322E0
2.469779250E0,-9.666792333E-1,7.845869976E-1,7.830159970E-1,1.470768353E0
2.479722250E0,1.699627715E-1,2.093431258E0,1.851705462E0,2.800027659E0
2.489666250E0,1.642342544E0,1.523728850E0,1.509915973E0,2.701644848E0
2.499609250E0,3.152571343E0,1.838013768E-1,-5.456375333E-1,3.204716732E0
2.509553250E0,3.380751917E0,-3.646867472E-1,-1.588554007E0,3.753129864E0
2.519496250E0,2.902569544E0,4.181028163E-1,-7.108086578E-1,3.017444096E0
2.529440250E0,2.089812708E0,1.838432429E0,4.596122003E-1,2.821062623E0
2.539383250E0,1.248971695E0,3.664535419E0,1.271027977E0,4.074832788E0
2.549327250E0,7.533368459E-1,4.936800082E0,1.260937437E0,5.150677109E0
2.559270250E0,5.845674911E-1,5.291448914E0,7.848308265E-1,5.381181115E0
2.569213250E0,7.963571504E-1,5.882338707E0,8.736704975E-1,5.999949460E0
2.579157250E0,1.058998290E0,6.914909629E0,1.406434289E0,7.135510491E0
2.589100250E0,9.549848020E-1,6.500861857E0,1.953171172E0,6.854785079E0
2.599044250E0,1.819528965E0,5.806996164E0,2.177903059E0,6.463370006E0
2.608987250E0,2.458365927E0,5.073776371E0,2.698872432E0,6.250654534E0
2.618931250E0,2.317158885E0,3.811264864E0,3.119716423E0,5.443123709E0
2.628874250E0,1.638135472E0,2.741874025E0,4.119562232E0,5.212691625E0
2.638818250E0,8.073157096E-1,2.442374961E0,3.733319432E0,4.533721219E0
2.648761250E0,2.166212136E-1,2.843980443E0,2.482409385E0,3.781204288E0
2.658705250E0,1.289572714E-1,3.672287657E0,1.179229323E0,3.859133117E0
2.668648250E0,-7.431416407E-1,2.995347900E0,-8.153960938E0,8.718454423E0
2.678592250E0,-2.801628476E0,-1.606242419E0,-3.074076566E1,3.090993060E1
2.688535250E0,-1.077319444E0,2.660805303E0,-5.307860879E0,6.034392195E0
2.698479250E0,-2.048567618E-1,5.285331557E0,5.060647033E0,7.320303570E0
2.708422250E0,-2.868937822E-1,3.801152689E0,6.929165141E0,7.908501714E0
2.718366250E0,-1.314314038E0,2.099199536E0,1.074661987E1,1.102832257E1
2.728309250E0,-2.545163165E0,1.686846871E0,9.163196792E0,9.658544577E0
2.738253250E0,-2.688689505E0,-3.514470137E0,-9.360287721E0,1.035352780E1
2.748196250E0,-2.827746380E-1,-2.054499911E1,-2.030640698E1,2.888818296E1
2.758139250E0,8.024226864E-1,-2.618657754E1,6.243958590E0,2.693265201E1
2.768083250E0,-5.985197078E0,-2.039932626E1,9.634392911E0,2.334045035E1
2.778026250E0,-1.405699996E1,-4.813309227E0,4.213997104E0,1.544425347E1
2.787970250E0,-3.866379257E0,-8.668859732E-1,6.259558377E-1,4.011508514E0
2.797913250E0,7.625915265E0,-2.232664572E0,-3.259311095E0,8.588508807E0
2.807857250E0,1.054769291E1,-2.902031600E-2,-6.266639940E0,1.226888113E1
2.817800250E0,7.663222255E0,1.614649546E0,-4.234023818E0,8.902753853E0
2.827744250E0,3.849904726E-1,1.840325173E0,-6.053827018E-1,1.975222170E0
2.837687250E0,-2.827342191E0,-1.399950897E0,-1.307695282E0,3.415229616E0
2.847631250E0,-3.742125047E0,-4.430054061E0,-2.178527541E0,6.194744636E0
2.857574250E0,-4.808339678E0,-6.323421666E0,-1.399553578E0,8.066259495E0
2.867518250E0,-4.372106108E0,-7.117101669E0,-1.695229147E0,8.523042288E0
2.877461250E0,-2.183126522E0,-6.757918321E0,-2.968808265E0,7.697358245E0
2.887405250E0,-1.036022241E0,-6.025594321E0,-2.980340144E0,6.801731866E0
2.897348250E0,-1.053340378E0,-6.013214597E0,-2.309123933E0,6.526892758E0
2.907292250E0,-8.556645817E-1,-5.800643165E0,-1.940710317E0,6.176243157E0
2.917235250E0,3.305401772E-1,-5.028101431E0,1.430784434E-1,5.040985246E0
2.927178250E0,1.608309556E0,-3.869049388E0,2.277334815E0,4.768905183E0
2.937122250E0,2.381394642E0,-2.564508678E0,1.976737790E0,4.019357846E0
2.947065250E0,2.498109744E0,-1.922786116E0,7.561420476E-1,3.241821947E0
2.957009250E0,2.240966449E0,-1.936142326E0,-2.369805168E0,3.792961147E0
2.966952250E0,2.223870360E0,-2.247206597E0,-4.642869322E0,5.617096440E0
2.976896250E0,1.922291295E0,-2.292029598E0,3.629249811E-2,2.991641798E0
2.986839250E0,1.535162204E0,-2.330690219E0,3.175888284E0,4.227896201E0
2.996783250E0,1.664908995E0,-1.836177742E0,3.071465199E0,3.946817596E0
3.006726250E0,1.007187720E0,-5.309733742E-1,1.878773539E0,2.196849981E0
3.016670250E0,-4.995869824E-1,1.330191860E0,1.157525336E0,1.832719956E0
3.026613250E0,-1.270153673E0,1.606076358E0,1.441642714E0,2.504217509E0
3.036557250E0,-1.623333246E-1,-2.216367797E0,4.764241147E-1,2.272799652E0
3.046500250E0,5.265815306E-1,-3.027705222E0,8.522170633E-2,3.074337288E0
3.056443250E0,6.043047675E-1,-2.392076628E0,2.950969872E-1,2.484813288E0
3.066387250E0,8.496793717E-2,-2.352137221E0,6.614613006E-1,2.444851756E0
3.076330250E0,-6.694640923E-1,-1.669447312E0,1.705591583E0,2.478765650E0
3.086274250E0,-1.009270060E0,-1.162321807E0,2.467242877E0,2.908075902E0
3.096217250E0,-1.032678803E0,-8.717795080E-1,2.516641909E0,2.856555884E0
3.106161250E0,-1.129291178E0,-6.844961143E-1,2.254360373E0,2.612656538E0
3.116104250E0,-1.051750228E0,1.119426048E-1,2.198259555E0,2.439478379E0
3.126048250E0,-6.896163748E-1,1.320386664E0,2.298217707E0,2.738758170E0
3.135991250E0,-1.337274300E-1,2.350514619E0,2.589983827E0,3.500116887E0
3.145935250E0,4.151341850E-1,2.600966653E0,3.060109906E0,4.037528521E0
3.155878250E0,7.633360232E-1,1.750639409E0,3.674585613E0,4.141255806E0
3.165822250E0,4.040553193E-1,1.075886511E0,4.460302877E0,4.605984612E0
3.175765250E0,-6.597511362E-1,2.244412213E0,4.973837516E0,5.496518660E0
3.185708250E0,-3.922531530E-1,3.084437832E0,5.492919992E0,6.311876846E0
3.195652250E0,3.005522201E-1,3.079025649E0,5.643965267E0,6.436231391E0
3.205595250E0,7.757952704E-1,2.869054474E0,5.639237793E0,6.374506629E0
3.215539500E0,6.845100014E-1,2.905275051E0,5.403523082E0,6.173106087E0
3.225482500E0,6.801892014E-1,3.039711310E0,5.943026374E0,6.709848335E0
3.235426500E0,7.856961413E-1,4.666889099E0,5.582680600E0,7.318708559E0
3.245369500E0,1.647271454E0,5.002235688E0,5.813743266E0,7.844455105E0
3.255313500E0,1.669743766E0,4.967977436E0,5.624224482E0,7.687700897E0
3.265256500E0,9.426730509E-1,5.109965374E0,4.723343382E0,7.022132960E0
3.275200500E0,1.226354227E0,4.031261090E0,4.715877657E0,6.324121499E0
3.285143500E0,9.664764811E-1,4.109234295E0,3.983702177E0,5.804288614E0
3.295087500E0,-4.173408876E-1,4.844255615E0,2.374174207E0,5.410886161E0
3.305030500E0,-5.734795623E-1,4.106587261E0,1.056769624E0,4.278983498E0
3.314974500E0,-6.619263735E-1,3.003464420E0,-6.033507943E-1,3.134162923E0
3.324917500E0,-1.057006436E0,2.175085285E0,-3.124160891E0,3.950777123E0
3.334860500E0,-1.497245349E0,1.409254401E0,-6.117635343E0,6.453929330E0
3.344804500E0,-1.867911020E0,-9.785315394E-3,-9.279356993E0,9.465498061E0
3.354747500E0,-1.812193049E0,-2.761172175E0,-1.078763925E1,1.128190038E1
3.364691500E0,-1.954530357E0,-6.068784195E0,-8.937262133E0,1.097838718E1
3.374634500E0,-2.091747406E0,-8.450644568E0,-6.424605979E0,1.081962859E1
3.384578500E0,-3.090030693E0,-7.604702151E0,-2.916998134E0,8.711409909E0
3.394521500E0,-2.729624400E0,-5.063471823E0,-3.293009768E0,6.628235784E0
3.404465500E0,-1.226732688E-1,-3.156325840E0,-6.091588921E0,6.861843566E0
3.414408500E0,1.589727543E0,-2.906159735E-1,-6.721868482E0,6.913407785E0
3.424352500E0,2.011120588E0,2.359601777E0,-5.571860327E0,6.376358998E0
3.434295500E0,2.609815244E0,2.304105853E0,-2.671006941E0,4.387974187E0
3.444238500E0,3.648268172E0,7.007654071E-2,-1.465043271E-1,3.651881008E0
3.454182500E0,3.028533188E0,-2.200183289E0,-4.051635128E-1,3.765232695E0
3.464125500E0,2.101291231E0,-6.983699198E0,-1.630729973E0,7.473068952E0
3.474069500E0,2.143291050E-1,-1.164830730E1,-6.409655233E0,1.329709292E1
3.484012500E0,-5.931091037E0,-1.158340671E1,-6.222305181E0,1.442463981E1
3.493956500E0,-7.120923994E0,-6.316357060E0,6.272723967E0,1.139960486E1
3.503899500E0,1.131108054E0,2.655318276E0,2.015459222E1,2.036019911E1
3.513843500E0,1.418667600E1,7.118490967E0,1.207786247E1,1.994516110E1
3.523786500E0,2.012668229E1,8.384738261E0,-3.074758351E-2,2.180339701E1
3.533730500E0,1.398037804E1,5.301255865E0,-4.602691934E0,1.564413811E1
3.543673500E0,1.226055434E0,-9.318368447E-1,8.194939395E0,8.338378951E0
3.553616500E0,-2.797661432E0,-6.401839845E0,1.846909488E1,1.974633963E1
3.563560500E0,-3.474826015E0,-7.207266319E0,7.659740238E0,1.107658450E1
3.573503500E0,-4.980074156E0,-7.217870829E0,-2.390848712E0,9.089276950E0
3.583447500E0,-5.788921836E0,-4.584073230E0,2.245120896E0,7.717895519E0
3.593390500E0,-3.982937946E0,-2.069465860E0,6.605898315E0,7.986512141E0
3.603334500E0,-1.027174819E0,-2.446515960E-1,4.961146719E0,5.072269638E0
3.613277500E0,6.304318812E-1,9.450971603E-1,1.599775983E0,1.962125428E0
3.623221500E0,3.128194008E0,4.194125926E-1,9.996087053E-1,3.310698150E0
3.633164500E0,4.244013786E0,3.575163066E-2,1.950945137E0,4.671093889E0
3.643108500E0,3.406879615E0,-8.524035895E-1,2.258086219E0,4.175209452E0
3.653051500E0,1.697073359E0,-1.352765036E0,2.716260589E0,3.476794906E0
3.662994500E0,-7.144215792E-2,-9.123036361E-1,3.077407140E0,3.210581974E0
3.672938500E0,-1.112554692E0,3.588553190E-1,2.028106457E0,2.340891045E0
3.682881500E0,-1.532831211E0,1.787773322E0,1.437695843E0,2.759107520E0
3.692825500E0,-1.471123498E0,2.422821288E0,1.684451852E0,3.297217824E0
3.702768500E0,-9.499105883E-1,2.082194079E0,1.685061424E0,2.842058112E0
3.712712500E0,-4.181808767E-1,1.225976935E0,1.340253310E0,1.863913524E0
3.722655500E0,-2.727658859E-1,1.083720025E0,6.618518946E-1,1.298806472E0
3.732599500E0,-1.625309604E-1,1.026627227E0,2.659968567E-1,1.072909178E0
3.742542500E0,4.553168356E-2,8.217524850E-1,2.213625745E-1,8.522626768E-1
3.752486500E0,9.522278398E-2,1.470582923E0,-8.102998361E-3,1.473684895E0
3.762429500E0,3.364452803E-1,2.136152185E0,-6.300586096E-1,2.252402147E0
3.772372500E0,1.302167909E0,1.773754038E0,-8.814081180E-1,2.370384973E0
3.782316500E0,1.769370088E0,1.570928745E0,-6.131495583E-1,2.444266763E0
3.792259500E0,1.395746456E0,1.183214493E0,-1.416441397E-1,1.835256867E0
3.802203500E0,-6.959648430E-3,1.294201663E0,-4.519657964E-1,1.370868141E0
3.812146500E0,-1.805210596E0,1.341451258E0,-8.869068396E-1,2.417618770E0
3.822090500E0,-2.745247284E0,1.045649389E0,-1.520669003E0,3.307899561E0
3.832033500E0,-2.588767022E0,9.239150369E-1,-2.531905189E0,3.737094804E0
3.841977500E0,-1.583353201E0,8.319769263E-1,-3.550961441E0,3.975992973E0
3.851920500E0,-6.866698167E-1,7.681802952E-1,-4.749682165E0,4.860154017E0
3.861864500E0,-8.033065662E-1,5.870335543E-1,-4.825993592E0,4.927486578E0
3.871807500E0,-1.574745222E0,1.405612171E-1,-3.929169289E0,4.235321862E0
3.881750500E0,-1.956608750E0,-2.887664992E-1,-2.905976717E0,3.515167787E0
3.891694500E0,-1.805154755E0,1.026367026E0,-2.460036476E0,3.219284459E0
3.901637500E0,-1.178456467E0,2.258247895E0,-2.169733329E0,3.346070220E0
3.911581500E0,-1.186329012E0,2.852970538E0,-2.163197750E0,3.771769070E0
3.921524500E0,-1.951995151E0,2.500749469E0,-2.173366935E0,3.845459246E0
3.931468500E0,-2.822568524E0,1.409675986E0,-1.267549030E0,3.400111763E0
3.941411500E0,-3.484971811E0,3.229300261E-1,-9.117855728E-2,3.501089239E0
3.951355500E0,-3.928615558E0,-2.507724613E-1,4.172713423E-1,3.958664220E0
3.961298500E0,-3.704014065E0,-9.099425304E-1,-8.917223141E-2,3.815189024E0
3.971241500E0,-2.962668104E0,-1.453845853E0,-1.074869095E0,3.470794380E0
3.981185500E0,-2.221977031E0,-2.340383733E0,-1.544234451E0,3.577602268E0
3.991128500E0,-2.055359452E0,-3.144911490E0,-1.703639490E0,4.125210088E0
4.001072500E0,-1.797539780E0,-3.636723137E0,-1.864658507E0,4.464734683E0
4.011015500E0,-2.123371048E0,-3.171781785E0,-2.096305164E0,4.354698571E0
4.020959500E0,-2.949754820E0,-2.197674249E0,-2.370197662E0,4.375918482E0
4.030902500E0,-3.985241749E0,-1.774890736E0,-2.299729066E0,4.931647057E0
4.040846500E0,-4.732032344E0,-2.327113477E0,-2.422539598E0,5.803127204E0
4.050789500E0,-4.883233740E0,-3.567303824E0,-2.230082588E0,6.445533079E0
4.060733500E0,-4.234544220E0,-5.317493582E0,-1.464079649E0,6.953461869E0
4.070676500E0,-3.232223868E0,-6.722454958E0,-1.291961010E0,7.570193858E0
4.080619500E0,-1.724159124E0,-7.462865072E0,-1.872719917E0,7.885059268E0
4.090563500E0,2.041406241E-1,-7.400065391E0,-2.370289317E0,7.773089002E0
4.100506500E0,1.858094276E0,-6.436413261E0,-2.045851879E0,7.004672720E0
4.110450500E0,2.995997818E0,-4.897384586E0,-1.264410099E0,5.878699823E0
4.120393500E0,3.617122978E0,-3.360483713E0,-5.147678161E-1,4.964012020E0
4.130337500E0,3.496779679E0,-2.499415720E0,1.672422960E0,4.612108587E0
4.140280500E0,2.789315994E0,-2.380789163E0,3.093056628E0,4.797440990E0
4.150224500E0,2.678846303E0,-3.017021774E0,2.483576782E0,4.737804505E0
4.160167500E0,2.725341607E0,-3.923920829E0,1.363153199E0,4.968181578E0
4.170110500E0,1.965652346E0,-4.499005013E0,8.745189285E-1,4.986944817E0
4.180054500E0,9.795675199E-1,-4.582745912E0,8.622681347E-1,4.764936406E0
4.189997500E0,4.879929771E-1,-4.610067612E0,5.800107560E-1,4.671966717E0
4.199941500E0,3.176094984E-1,-4.498707390E0,5.969027773E-1,4.549234760E0
4.209883667E0,-2.293000236E-2,-4.050296701E0,9.836446372E-1,4.168091400E0
4.219827667E0,-9.329805601E-1,-3.312683895E0,1.829903095E0,3.897803567E0
4.229770667E0,-2.022188051E0,-2.317477266E0,2.541325930E0,3.989772283E0
4.239713667E0,-2.647297066E0,-1.291548781E0,3.021647214E0,4.219790504E0
4.249657667E0,-2.470421716E0,-4.093980664E-1,3.390541325E0,4.215016098E0
4.259600667E0,-1.971162762E0,4.994755930E-1,3.599078178E0,4.133802395E0
4.269544667E0,-1.568578749E0,1.245856884E0,3.801592984E0,4.297058050E0
4.279487667E0,-1.032098467E0,1.925192245E0,4.309185097E0,4.831218131E0
4.289431667E0,-2.871440430E-1,2.517432745E0,4.949723598E0,5.560547008E0
4.299374667E0,4.627908929E-1,2.918534197E0,5.211116357E0,5.990638611E0
4.309318667E0,9.074821682E-1,3.487968802E0,5.337862943E0,6.440670077E0
4.319261667E0,1.455822065E0,3.972336944E0,5.597067674E0,7.016127509E0
4.329204667E0,1.945451970E0,4.139770795E0,6.011248763E0,7.553647946E0
4.339148667E0,2.297423947E0,4.211651201E0,6.366686384E0,7.971879211E0
4.349091667E0,2.567556247E0,4.294665876E0,6.621099907E0,8.299124294E0
4.359035667E0,2.657799835E0,4.519998856E0,6.716868528E0,8.521186094E0
4.368978667E0,2.560852414E0,4.867003623E0,6.728113309E0,8.689833028E0
4.378922667E0,2.299987659E0,5.098276205E0,6.588957177E0,8.642726432E0
4.388865667E0,2.023720606E0,4.925986826E0,6.302509684E0,8.251207162E0
4.398809667E0,1.543031679E0,4.451976442E0,5.883205850E0,7.537449971E0
4.408752667E0,7.682943159E-1,4.931479701E0,5.219794210E0,7.221912475E0
4.418695667E0,5.030070189E-1,5.249163020E0,5.022074121E0,7.282029728E0
4.428639667E0,2.940525283E-1,5.008878125E0,4.477367392E0,6.724741312E0
4.438582667E0,-9.916512296E-2,4.782181574E0,3.669531280E0,6.028644470E0
4.448526667E0,-7.677730367E-2,4.285797404E0,2.788896164E0,5.113892447E0
4.458469667E0,3.604121402E-2,3.838438044E0,1.815200856E0,4.246158233E0
4.468413667E0,2.786331283E-1,3.553714310E0,3.983047289E-1,3.586804772E0
4.478356667E0,4.402092384E-1,3.238928286E0,-1.888488396E0,3.775027024E0
4.488300667E0,3.196361433E-1,2.526566681E0,-5.008426720E0,5.618722690E0
4.498243667E0,-1.327182005E-1,8.419353193E-1,-9.036382379E0,9.076490274E0
4.508186667E0,-1.302401359E0,-2.096754230E0,-1.288424964E1,1.311855619E1
4.518130667E0,-3.384917766E0,-5.926909693E0,-1.441140438E1,1.594598705E1
4.528073667E0,-5.680918500E0,-9.793718428E0,-1.116505831E1,1.590120382E1
4.538017667E0,-6.747483380E0,-1.186294806E1,-4.654652631E0,1.441956517E1
4.547960667E0,-6.143774151E0,-1.093099076E1,-2.317977787E0,1.275168777E1
4.557904667E0,-3.229209921E0,-7.937330369E0,-4.883646553E0,9.863012408E0
4.567847667E0,1.757627709E-1,-2.764399838E0,-7.173622025E0,7.689840829E0
4.577790667E0,2.094136724E0,2.843412094E0,-5.629864122E0,6.645733292E0
4.587734667E0,3.530204410E0,6.732336168E0,-2.172945204E0,7.906224403E0
4.597677667E0,5.462058388E0,7.910493988E0,9.804722303E-1,9.662883771E0
4.607621667E0,7.695231668E0,4.569889054E0,3.974479948E0,9.792699692E0
4.617564667E0,8.098436948E0,-1.281012098E0,3.830922618E0,9.049952547E0
4.627508667E0,5.185679215E0,-7.815601864E0,-2.973946506E-1,9.384207212E0
4.637451667E0,-1.139341372E0,-1.488601819E1,-6.833906981E0,1.641931549E1
4.647395667E0,-8.334365083E0,-1.776486325E1,-7.332447605E0,2.094795444E1
4.657338667E0,-1.136573475E1,-9.537004611E0,7.817625001E0,1.677049922E1
4.667281667E0,-2.863841096E0,9.842331594E-1,1.915430903E1,1.939221120E1
4.677225667E0,8.976050223E0,6.213919689E0,1.062738929E1,1.523560562E1
4.687168667E0,1.418165675E1,8.720121102E0,-8.055574518E-1,1.666759800E1
4.697112667E0,1.185664827E1,8.114079419E0,-1.189934113E0,1.441646060E1
4.707055667E0,6.428042972E0,3.204668280E0,7.861241722E0,1.064841569E1
4.716999667E0,2.533622223E0,-2.983166395E0,1.335531420E1,1.391700186E1
4.726942667E0,-5.466949292E-1,-6.974784533E0,8.117438645E0,1.071631022E1
4.736885667E0,-4.804014493E0,-8.137431445E0,2.888049154E0,9.881152447E0
4.746829667E0,-8.104121611E0,-7.467075652E0,2.906743872E0,1.139662958E1
4.756772667E0,-8.831899985E0,-5.806949387E0,4.301679611E0,1.141172932E1
4.766716667E0,-6.747405027E0,-3.937524961E0,4.009539853E0,8.781115376E0
4.776659667E0,-2.577569019E0,-2.336986501E0,3.214389861E0,4.736841788E0
4.786603667E0,7.753529285E-1,-4.856954598E-1,2.734960862E0,2.883935360E0
4.796546667E0,2.650542855E0,1.205830938E0,2.360159016E0,3.748300450E0
4.806489667E0,3.751314531E0,2.128616878E0,2.250286911E0,4.864890718E0
4.816433667E0,4.042951136E0,2.368457385E0,2.263113070E0,5.203530056E0
4.826376667E0,3.663850125E0,1.962512099E0,2.321101955E0,4.760542591E0
4.836320667E0,2.713275293E0,1.399619944E0,2.076393348E0,3.692182030E0
4.846263667E0,1.669077475E0,9.237080455E-1,1.948952991E0,2.727173249E0
4.856207667E0,7.770100294E-1,6.580298620E-1,1.894492317E0,2.150778701E0
4.866150667E0,-2.674224079E-3,5.972503942E-1,1.708795857E0,1.810165315E0
4.876093667E0,-6.802244309E-1,8.565445876E-1,1.459058938E0,1.823520466E0
4.886037667E0,-9.243696579E-1,1.401136712E0,1.219634460E0,2.074885916E0
4.895980667E0,-4.815468603E-1,1.979995859E0,9.888224928E-1,2.264959360E0
4.905924667E0,7.030205320E-1,1.853219453E0,6.558250232E-1,2.087765952E0
4.915867667E0,1.268999286E0,1.751956202E0,2.464833824E-1,2.177260614E0
4.925811667E0,1.099630299E0,1.885465677E0,7.575418711E-2,2.184011518E0
4.935754667E0,6.461687851E-1,2.062922240E0,1.831020498E-1,2.169495017E0
4.945698667E0,-4.520540893E-2,2.114006440E0,-2.350112915E-1,2.127509592E0
4.955641667E0,-1.022144752E0,1.979611112E0,-7.286975563E-1,2.344064883E0
4.965584667E0,-2.102880650E0,1.628869389E0,-8.525684810E-1,2.793241044E0
4.975528667E0,-2.846297695E0,1.184557598E0,-1.007656521E0,3.243448618E0
4.985471667E0,-2.899068524E0,6.501156557E-1,-1.499983892E0,3.328242832E0
4.995415667E0,-2.322235730E0,2.208259463E-1,-2.274946373E0,3.258362147E0
5.005358667E0,-1.553232147E0,9.284384429E-2,-2.873945670E0,3.268136134E0
5.015302667E0,-8.681279218E-1,2.501573342E-1,-3.140212083E0,3.267591882E0
5.025245667E0,-7.447008008E-1,4.974086022E-1,-3.213591131E0,3.336039951E0
5.035188667E0,-1.121303296E0,6.861567235E-1,-2.948775412E0,3.228530403E0
5.045132667E0,-1.460863973E0,9.388149118E-1,-2.240506858E0,2.834672462E0
5.055075667E0,-1.344367265E0,1.122414560E0,-1.537999711E0,2.330789758E0
5.065019667E0,-8.280663085E-1,1.196984101E0,-1.135622835E0,1.846105082E0
5.074962667E0,-3.572392948E-1,1.163876581E0,-9.494247577E-1,1.543902840E0
5.084906667E0,-4.093145974E-1,1.138979137E0,-1.109940768E0,1.642187694E0
5.094849667E0,-1.387875373E0,1.299968771E0,-8.138915614E-1,2.068462311E0
5.104792667E0,-2.921729116E0,1.309086919E0,-7.303289294E-2,3.202427734E0
5.114736667E0,-3.905109751E0,7.301412338E-1,2.956610973E-1,3.983767548E0
5.124679667E0,-3.928485750E0,8.400519311E-2,2.305171216E-1,3.936139645E0
5.134623667E0,-3.150282158E0,-1.752410531E-1,-1.365253226E-1,3.158104853E0
5.144566667E0,-1.905925377E0,-7.940857995E-1,-6.925120622E-1,2.177773348E0
5.154509667E0,-9.791817498E-1,-1.703875718E0,-1.324369787E0,2.369798450E0
5.164453667E0,-3.168838589E-1,-2.395025963E0,-1.811514041E0,3.019627107E0
5.174396667E0,8.036303557E-2,-2.785370877E0,-2.178000853E0,3.536726857E0
5.184340667E0,-3.198839922E-1,-2.936768155E0,-2.948929778E0,4.174101077E0
5.194283667E0,-1.539586792E0,-2.685888104E0,-3.479383920E0,4.657299095E0
5.204227667E0,-3.614132127E0,-2.365869407E0,-2.980555614E0,5.248142610E0
5.214170875E0,-5.832691169E0,-2.235157825E0,-2.739144545E0,6.820493355E0
5.224114875E0,-6.664985014E0,-2.902739698E0,-3.277829227E0,7.974464712E0
5.234057875E0,-5.821720623E0,-4.041130021E0,-3.608591014E0,7.952678288E0
5.244000875E0,-4.671307840E0,-4.881936243E0,-3.191199219E0,7.472494287E0
5.253944875E0,-4.243372931E0,-5.325517716E0,-2.283531840E0,7.182051966E0
5.263887875E0,-4.246537152E0,-5.404792512E0,-1.407090932E0,7.016036258E0
5.273831875E0,-3.630447029E0,-5.227747593E0,-1.012596321E0,6.444753047E0
5.283774875E0,-2.250462912E0,-4.990796780E0,-7.096497396E-1,5.520528831E0
5.293717875E0,-7.961269893E-1,-4.886339781E0,-3.121395743E-1,4.960601350E0
5.303661875E0,5.990145723E-1,-4.427124022E0,9.933016975E-2,4.468569351E0
5.313604875E0,1.823938351E0,-3.705006337E0,6.075830090E-1,4.174084352E0
5.323548875E0,2.245515729E0,-3.280210213E0,2.487087450E0,4.689106942E0
5.333491875E0,2.415585651E0,-3.443153402E0,4.101932877E0,5.875050018E0
5.343435875E0,3.382760143E0,-3.976789598E0,3.204504558E0,6.125909823E0
5.353378875E0,4.106588138E0,-4.167585999E0,1.445252931E0,6.026740017E0
5.363321875E0,3.872539591E0,-3.870614687E0,8.319240090E-1,5.538078953E0
5.373265875E0,3.070599226E0,-3.374815239E0,7.637162384E-1,4.626145263E0
5.383208875E0,1.912644413E0,-2.947575563E0,4.468372035E-1,3.542043737E0
5.393152875E0,6.263418270E-1,-2.422259370E0,5.885751727E-1,2.570226697E0
5.403095875E0,-3.019797447E-1,-1.952053185E0,1.369808500E0,2.403763451E0
5.413039875E0,-1.178507996E0,-1.904357446E0,2.159800371E0,3.111301339E0
5.422982875E0,-1.930875446E0,-1.641437395E0,2.023189241E0,3.242821521E0
5.432925875E0,-2.486821402E0,-1.010792382E0,2.412824888E0,3.609391342E0
5.442869875E0,-3.049625556E0,-8.028753340E-2,3.176111648E0,4.403901375E0
5.452812875E0,-3.314447415E0,7.003210187E-1,3.410762166E0,4.807214344E0
5.462756875E0,-2.951933493E0,1.363878254E0,3.529399248E0,4.799034725E0
5.472699875E0,-1.994865913E0,1.958588033E0,3.967796873E0,4.853758247E0
5.482643875E0,-9.372417916E-1,2.658880400E0,4.611230038E0,5.404767305E0
5.492586875E0,2.801664144E-2,3.349074041E0,5.012054332E0,6.028081826E0
5.502529875E0,7.641832117E-1,3.679699003E0,5.194761695E0,6.411685411E0
5.512473875E0,1.323178124E0,3.611553798E0,5.442322281E0,6.664307390E0
5.522416875E0,1.663875792E0,3.366439687E0,5.836398304E0,6.940096828E0
5.532360875E0,1.806014734E0,3.369488425E0,6.049888918E0,7.156556252E0
5.542303875E0,1.811849963E0,3.593663657E0,6.079437237E0,7.290869351E0
5.552247875E0,1.725692849E0,3.871911015E0,5.964845259E0,7.317724351E0
5.562190875E0,1.624583380E0,4.127764122E0,5.723373379E0,7.241181578E0
5.572133875E0,1.536644765E0,4.302277197E0,5.445109064E0,7.107747810E0
5.582077875E0,1.440711398E0,4.403032908E0,5.126656251E0,6.909772242E0
5.592020875E0,1.262606964E0,4.391630838E0,4.829929937E0,6.648971421E0
5.601964875E0,9.748341988E-1,4.262003914E0,4.579793653E0,6.331626093E0
5.611907875E0,7.419388685E-1,4.129113659E0,4.129163945E0,5.886429120E0
5.621850875E0,5.044468957E-1,4.007881583E0,3.464287578E0,5.321547696E0
5.631794875E0,4.354614455E-1,3.885511054E0,2.621398578E0,4.707287258E0
5.641737875E0,3.702620673E-1,3.890940194E0,1.538535170E0,4.200428556E0
5.651681875E0,3.322661291E-1,3.900189904E0,2.691169310E-1,3.923557823E0
5.661624875E0,3.751892236E-1,3.842001922E0,-1.312236230E0,4.077218371E0
5.671568875E0,5.355666545E-1,3.142721708E0,-3.489024809E0,4.726185089E0
5.681511875E0,4.906335796E-1,2.020508292E0,-6.034559857E0,6.382717896E0
5.691454875E0,-9.586217701E-3,6.804381466E-1,-8.238026943E0,8.266085886E0
5.701398875E0,-1.221880230E0,-1.279422240E0,-9.766630617E0,9.925572335E0
5.711341875E0,-2.910773188E0,-3.724977502E0,-1.020645292E1,1.124809935E1
5.721285875E0,-4.358008763E0,-6.281873690E0,-8.474477234E0,1.141362965E1
5.731228875E0,-4.020098171E0,-8.230396326E0,-5.238658497E0,1.055197403E1
5.741172875E0,-1.713791864E0,-8.754241945E0,-3.784722013E0,9.690095732E0
5.751115875E0,9.263237974E-1,-7.351551628E0,-3.824479571E0,8.338466951E0
5.761058875E0,2.543428296E0,-3.992112812E0,-3.506174108E0,5.890606851E0
5.771002875E0,3.225982550E0,6.259596384E-1,-2.570998503E0,4.172388068E0
5.780945875E0,3.888431738E0,4.884434758E0,-1.715194758E0,6.474526804E0
5.790889875E0,5.262238564E0,7.030992063E0,-1.033956712E0,8.842797667E0
5.800832875E0,6.640491028E0,4.474352567E0,8.422732884E-1,8.051420761E0
5.810775875E0,6.283978103E0,-2.291244902E0,2.446103731E0,7.121910380E0
5.820719875E0,2.518467410E0,-8.205683654E0,-3.262851584E-1,8.589667300E0
5.830662875E0,-4.042312328E0,-1.325485202E1,-6.448657916E0,1.528452092E1
5.840606875E0,-9.808372720E0,-1.674070939E1,-8.936454633E0,2.136154835E1
5.850549875E0,-1.097382863E1,-1.143916292E1,4.420128413E0,1.645651538E1
5.860493875E0,-3.038783357E0,6.356437969E-1,1.796495730E1,1.823123524E1
5.870436875E0,9.157044936E0,8.204023629E0,1.337222084E1,1.816518004E1
5.880379875E0,1.557942663E1,1.108466495E1,5.724470901E-1,1.912893167E1
5.890323875E0,1.314874610E1,1.042745896E1,-3.927154339E0,1.723496346E1
5.900266875E0,3.638218855E0,5.511938061E0,7.309818880E0,9.851474493E0
5.910210875E0,-1.783376508E0,-8.187101787E-1,1.531158440E1,1.543681751E1
5.920153875E0,-3.613950279E0,-5.902848986E0,9.781507688E0,1.198257716E1
5.930096875E0,-5.699714960E0,-9.753709440E0,2.510952276E0,1.157266088E1
5.940040875E0,-7.442720829E0,-1.173927945E1,1.320988342E0,1.396244196E1
5.949983875E0,-8.565178658E0,-1.043035216E1,4.056784771E0,1.409297819E1
5.959927875E0,-6.884953759E0,-7.115549818E0,4.343089008E0,1.081184811E1
5.969870875E0,-2.967395870E0,-3.630046787E0,3.355261565E0,5.765453850E0
5.979814875E0,2.217699793E-1,-6.715842927E-1,2.812364256E0,2.899931050E0
5.989757875E0,2.383792877E0,1.622061476E0,2.375971057E0,3.736146461E0
5.999700875E0,3.743723676E0,3.058693126E0,2.484452110E0,5.435399975E0
6.009644875E0,4.380391320E0,3.404892147E0,2.818302396E0,6.222856823E0
6.019587875E0,4.191141508E0,3.046802813E0,2.630845048E0,5.811197827E0
6.029531875E0,3.008474899E0,2.416032670E0,1.992388740E0,4.342550860E0
6.039474875E0,1.371035684E0,1.618889946E0,1.552082876E0,2.628593685E0
6.049417875E0,-1.128252420E-1,9.064774704E-1,1.399810563E0,1.671496501E0
6.059361875E0,-1.371548631E0,6.146616483E-1,1.224471277E0,1.938629541E0
6.069304875E0,-2.186192656E0,6.661569071E-1,9.518748142E-1,2.475736056E0
6.079248875E0,-2.420214891E0,8.719192564E-1,8.019234073E-1,2.694580572E0
6.089191875E0,-2.099435179E0,1.133628935E0,8.323733675E-1,2.526972112E0
6.099135875E0,-1.423107186E0,1.536744168E0,9.344281845E-1,2.293463044E0
6.109078875E0,-6.859313133E-1,2.183665490E0,7.879473925E-1,2.420693667E0
6.119021875E0,-7.621202409E-2,3.057493862E0,7.589510500E-1,3.151203530E0
6.128965875E0,1.952538796E-1,3.618451173E0,1.041062906E0,3.770295074E0
6.138908875E0,5.665542662E-2,3.697112596E0,1.337023308E0,3.931854869E0
6.148852875E0,-2.288506651E-1,3.252983823E0,1.193207384E0,3.472466017E0
6.158795875E0,-8.168940336E-1,2.609662047E0,7.001409245E-1,2.822737886E0
6.168738875E0,-1.133897176E0,1.851301566E0,-1.218992436E-1,2.174373408E0
6.178682875E0,-9.726099180E-1,1.269548047E0,-8.722759366E-1,1.821699099E0
6.188625875E0,-9.000151277E-2,9.840594971E-1,-1.467223697E0,1.768959792E0
6.198569875E0,1.139420163E0,6.004154921E-1,-2.200771519E0,2.549935754E0
6.208512875E0,1.516092679E0,-4.149675393E-1,-2.655535793E0,3.085871905E0
6.218457042E0,4.743580011E-1,-1.442492899E0,-3.146576192E0,3.493814965E0
6.228400042E0,-6.854438748E-1,-1.961356105E0,-3.884514104E0,4.405246973E0
6.238343042E0,-1.360330017E0,-1.785547287E0,-3.758349316E0,4.377655360E0
6.248287042E0,-1.214056655E0,-9.230911642E-1,-2.888125752E0,3.266083468E0
6.258230042E0,-4.956029820E-1,1.877102405E-1,-2.462185913E0,2.518574382E0
6.268174042E0,3.441206279E-1,7.926076233E-1,-2.503399428E0,2.648330520E0
6.278117042E0,-2.605487135E-1,6.785769778E-1,-2.111426648E0,2.233041612E0
6.288060042E0,-2.421001926E0,4.091378653E-1,-1.347386182E0,2.800730912E0
6.298004042E0,-4.537823216E0,9.440855920E-2,-7.938776386E-1,4.607710301E0
6.307947042E0,-5.402700378E0,-1.630139405E-1,-3.874436720E-1,5.419027359E0
6.317891042E0,-5.286225012E0,-1.783488482E-1,-3.725777109E-1,5.302338856E0
6.327834042E0,-4.667940429E0,-2.454140729E-1,-7.663268740E-1,4.736787180E0
6.337777042E0,-3.367874594E0,-1.166884974E0,-1.534784473E0,3.880691073E0
6.347721042E0,-1.932739831E0,-2.414166239E0,-2.398890388E0,3.913867266E0
6.357664042E0,-1.660969141E0,-2.813514696E0,-2.484892990E0,4.104799216E0
6.367608042E0,-2.736987799E0,-2.827551522E0,-2.034631218E0,4.430109933E0
6.377551042E0,-4.061471899E0,-3.222297050E0,-2.110650869E0,5.597642304E0
6.387495042E0,-4.655023345E0,-3.742597502E0,-2.600270834E0,6.514421449E0
6.397438042E0,-3.782307990E0,-4.294926077E0,-2.774566977E0,6.360068054E0
6.407381042E0,-2.460743405E0,-5.666626151E0,-2.116714286E0,6.530420309E0
6.417325042E0,-2.084344684E0,-7.521748288E0,-1.494261222E0,7.946949520E0
6.427268042E0,-1.634063179E0,-8.087476927E0,-1.838424243E0,8.453238978E0
6.437212042E0,1.343879461E-1,-6.961945217E0,-2.631616588E0,7.443933583E0
6.447155042E0,1.863036635E0,-5.063354294E0,-2.490161331E0,5.942168432E0
6.457098042E0,2.172958068E0,-3.619268614E0,-1.524035829E0,4.488155220E0
6.467042042E0,1.828552681E0,-2.620444897E0,-2.515577424E-1,3.205248456E0
6.476985042E0,1.358340648E0,-2.136042257E0,1.295078745E0,2.843412526E0
6.486929042E0,5.883571447E-1,-2.353047048E0,3.579168409E0,4.323591220E0
6.496872042E0,4.691442581E-1,-2.958525059E0,3.718656077E0,4.775077998E0
6.506815042E0,8.707330757E-1,-3.788838453E0,2.584878623E0,4.668519081E0
6.516759042E0,1.489695717E0,-4.477636364E0,1.563259975E0,4.971136941E0
6.526702042E0,1.225218551E0,-4.664900461E0,1.058336678E0,4.937867286E0
6.536646042E0,1.003921612E0,-4.372172474E0,9.354366830E-1,4.582443947E0
6.546589042E0,6.197083801E-1,-3.923153674E0,5.824624935E-1,4.014278987E0
6.556532042E0,-9.546602815E-2,-3.594864090E0,4.903135908E-1,3.629403395E0
6.566476042E0,-5.280453810E-1,-3.461532955E0,9.617780972E-1,3.631261411E0
6.576419042E0,-9.555092973E-1,-3.446608522E0,1.975026018E0,4.085686734E0
6.586363042E0,-1.611076312E0,-3.315388817E0,2.747620961E0,4.597476572E0
6.596306042E0,-2.074892076E0,-2.545682983E0,3.067829985E0,4.494136156E0
6.606249042E0,-2.168287605E0,-1.724761972E0,3.416866075E0,4.399005430E0
6.616193042E0,-1.920645158E0,-9.029001439E-1,3.682044321E0,4.249889043E0
6.626136042E0,-1.664657857E0,2.760061204E-2,4.047465186E0,4.376507970E0
6.636080042E0,-1.205309659E0,9.050022179E-1,4.449249593E0,4.697618794E0
6.646023042E0,-4.837767691E-1,1.507724437E0,5.057426972E0,5.299513234E0
6.655967042E0,1.822235422E-1,2.163349339E0,5.669168521E0,6.070647206E0
6.665910042E0,7.808997434E-1,2.703865954E0,6.058077943E0,6.679895499E0
6.675853042E0,1.065933234E0,3.110995300E0,6.313473798E0,7.118599358E0
6.685797042E0,1.307326615E0,3.491625651E0,6.640249538E0,7.615344148E0
6.695740042E0,1.618445558E0,3.899275399E0,6.864712452E0,8.059031686E0
6.705684042E0,1.760317721E0,4.459622262E0,7.079046820E0,8.549845207E0
6.715627042E0,1.826791792E0,5.112313031E0,7.155682767E0,8.982021412E0
6.725570042E0,1.823462095E0,5.793967983E0,7.044617245E0,9.301704743E0
6.735514042E0,1.728228201E0,6.340109035E0,6.761385135E0,9.428684120E0
6.745457042E0,1.622238939E0,6.594995012E0,6.291087733E0,9.257613259E0
6.755401042E0,1.342164618E0,6.535341718E0,5.551002724E0,8.679039606E0
6.765344042E0,7.941916341E-1,6.332636878E0,4.743233855E0,7.951810963E0
6.775287042E0,2.045510256E-1,6.004682924E0,4.056032819E0,7.249100660E0
6.785231042E0,-2.923711614E-1,5.533576267E0,3.247460543E0,6.422767875E0
6.795174042E0,-5.452453313E-1,4.999906157E0,2.302395542E0,5.531489789E0
6.805118042E0,-4.940696228E-1,4.526255962E0,1.193452383E0,4.706955111E0
6.815061042E0,-3.117119236E-1,4.195350333E0,-1.152737635E-1,4.208493410E0
6.825004042E0,3.619828485E-2,3.727028121E0,-1.598206006E0,4.055405204E0
6.834948042E0,3.057883286E-1,2.779817192E0,-3.506481671E0,4.485120270E0
6.844891042E0,4.550636512E-1,1.242786511E0,-5.702799951E0,5.854359787E0
6.854835042E0,4.952094644E-1,-8.345327443E-1,-7.749076338E0,7.809600592E0
6.864778042E0,6.818175048E-2,-3.272142810E0,-9.669672672E0,1.020853255E1
6.874721042E0,-1.211475767E0,-5.965413609E0,-1.142519509E1,1.294561377E1
6.884665042E0,-3.393831553E0,-8.446219395E0,-1.106004232E1,1.432414922E1
6.894608042E0,-4.882279766E0,-9.640423145E0,-7.681940362E0,1.325845473E1
6.904552042E0,-4.004690757E0,-8.936140637E0,-5.691325375E0,1.132622365E1
6.914495042E0,-1.365243286E0,-7.013903575E0,-5.427455150E0,8.973070935E0
6.924438042E0,1.383110915E0,-3.582825842E0,-5.148786208E0,6.423366426E0
6.934382042E0,2.715146987E0,9.346476012E-1,-4.361806530E0,5.222159084E0
6.944325042E0,3.679765954E0,4.060749768E0,-1.961047372E0,5.820315537E0
6.954269042E0,5.092525468E0,3.747889232E0,2.521343363E0,6.807177219E0
6.964212042E0,6.526317710E0,-3.406786644E-1,3.897254017E0,7.609038946E0
6.974155042E0,4.731071062E0,-5.637040994E0,-5.725809914E-1,7.381538698E0
6.984099042E0,-2.059494895E0,-9.894258378E0,-6.124669544E0,1.181733663E1
6.994042042E0,-7.386203397E0,-1.130250998E1,-1.671594994E0,1.360503445E1
7.003986042E0,-7.919924963E0,-5.603840504E0,8.840890664E0,1.312591283E1
7.013929042E0,-1.119006072E0,2.336922766E0,1.730206314E1,1.749499276E1
7.023872042E0,8.605774707E0,6.309232813E0,1.211580622E1,1.614492296E1
7.033816042E0,1.295312984E1,6.487240183E0,-3.774348468E-1,1.449173264E1
7.043759042E0,9.696787965E0,3.471673781E0,-2.206305909E0,1.053318572E1
7.053703042E0,2.731039427E0,-1.566341604E0,9.126375121E0,9.654155852E0
7.063646042E0,-1.038219551E0,-5.727262362E0,1.338009587E1,1.459131247E1
7.073589042E0,-2.806336069E0,-7.783189579E0,4.327606165E0,9.337116111E0
7.083533042E0,-4.534202912E0,-7.560612976E0,6.211941576E-1,8.837858723E0
7.093476042E0,-5.062757294E0,-5.624680565E0,3.620627507E0,8.389129062E0
7.103420042E0,-4.664982907E0,-3.259950196E0,4.868552551E0,7.489468922E0
7.113363042E0,-3.065487298E0,-1.364760599E0,4.475657666E0,5.593862298E0
7.123306042E0,-6.659997632E-1,-1.514037091E-1,3.606271131E0,3.670377397E0
7.133250042E0,1.265411581E0,6.742798591E-1,3.094424291E0,3.410481123E0
7.143193042E0,2.240247826E0,1.315345779E0,2.851633279E0,3.857545489E0
7.153137042E0,2.399670407E0,1.884540063E0,2.604393413E0,4.011580033E0
7.163080042E0,2.235367740E0,2.229316456E0,2.072006475E0,3.776232464E0
7.173023042E0,1.912599389E0,2.140225355E0,1.462654391E0,3.221483953E0
7.182967042E0,1.464724305E0,1.599093613E0,9.396253359E-1,2.363347931E0
7.192910042E0,6.937711870E-1,1.008523078E0,7.362156138E-1,1.428443450E0
7.202853042E0,-2.534350640E-1,5.551317304E-1,6.197075030E-1,8.697344187E-1
7.212796125E0,-1.050363999E0,3.689844507E-1,4.015060794E-1,1.183478427E0
7.222739125E0,-1.610701798E0,3.909308052E-1,1.817912503E-1,1.667403741E0
7.232683125E0,-1.796740612E0,4.088402420E-1,1.853906500E-1,1.851971075E0
7.242626125E0,-1.581597721E0,5.957119918E-1,3.596796302E-1,1.727915960E0
7.252570125E0,-9.815469486E-1,1.032626470E0,3.547996902E-1,1.468207976E0
7.262513125E0,-2.435721269E-1,1.664479517E0,9.883914068E-2,1.685107896E0
7.272456125E0,3.335064697E-1,2.282415606E0,-1.031834757E-1,2.308959592E0
7.282400125E0,4.461975912E-1,2.820641282E0,-9.979552589E-2,2.857458430E0
7.292343125E0,1.221063081E-1,3.264920914E0,1.235926703E-1,3.269540284E0
7.302286125E0,-3.659069149E-1,3.231488873E0,3.176990338E-1,3.267620064E0
7.312230125E0,-9.830205931E-1,2.700911940E0,1.847778253E-1,2.880173196E0
7.322173125E0,-1.604124557E0,1.666380447E0,5.507894419E-4,2.313015282E0
7.332117125E0,-2.143580780E0,3.814132923E-1,-1.406734836E-1,2.181789102E0
7.342060125E0,-2.334485646E0,-7.989039052E-1,-4.642081118E-1,2.510689119E0
7.352003125E0,-1.988011514E0,-1.362784240E0,-1.024450309E0,2.618944272E0
7.361947125E0,-1.282059627E0,-1.010488327E0,-1.676285630E0,2.339807056E0
7.371890125E0,-4.004530690E-1,-2.667341906E-1,-2.291616200E0,2.341583780E0
7.381834125E0,2.093844436E-1,3.470094448E-1,-2.487900213E0,2.520695315E0
7.391777125E0,1.272626387E-1,8.397180551E-1,-2.148891513E0,2.310639939E0
7.401720125E0,-3.112814223E-1,1.244424316E0,-1.403908877E0,1.901696121E0
7.411664125E0,-5.869148558E-1,1.460928000E0,-6.639899290E-1,1.708701933E0
7.421607125E0,-6.164514810E-1,1.334266784E0,-4.894429404E-1,1.549139978E0
7.431551125E0,-7.209207594E-1,7.487137449E-1,-6.592267871E-1,1.230804196E0
7.441494125E0,-1.080119310E0,-1.133184546E-1,-1.401430242E0,1.772993378E0
7.451437125E0,-1.705115327E0,-5.758367211E-1,-2.420737340E0,3.016450808E0
7.461381125E0,-2.879102621E0,-1.089646178E-1,-2.303301861E0,3.688672479E0
7.471324125E0,-4.174264689E0,2.689602256E-1,-1.383583517E0,4.405806242E0
7.481268125E0,-4.816338961E0,-5.521853185E-1,-6.225191367E-1,4.887694722E0
7.491211125E0,-4.453197049E0,-1.683463088E0,-2.161750710E-1,4.765683957E0
7.501154125E0,-3.308095000E0,-1.951108859E0,-3.311956501E-1,3.854868204E0
7.511098125E0,-1.984626561E0,-1.776109296E0,-8.636600643E-1,2.799859912E0
7.521041125E0,-1.180939634E0,-2.164552111E0,-1.872816542E0,3.096343983E0
7.530984125E0,-9.348867524E-1,-2.867303817E0,-2.886827670E0,4.174831544E0
7.540928125E0,-1.226783266E0,-3.308659841E0,-2.981683542E0,4.619812103E0
7.550871125E0,-2.102967189E0,-3.383376732E0,-2.159363877E0,4.531286954E0
7.560815125E0,-3.407123736E0,-3.596486692E0,-1.199605262E0,5.097279811E0
7.570758125E0,-4.473460867E0,-4.183136669E0,-1.373168456E0,6.276629361E0
7.580701125E0,-3.947513174E0,-4.798038638E0,-2.244115759E0,6.606064682E0
7.590645125E0,-2.633619844E0,-5.602629545E0,-2.267390455E0,6.592910645E0
7.600588125E0,-2.441249665E0,-6.435708087E0,-2.292016296E0,7.254748597E0
7.610532125E0,-3.338751659E0,-6.280757457E0,-2.410144963E0,7.510258026E0
7.620475125E0,-3.659873141E0,-5.405804665E0,-2.015055618E0,6.832118605E0
7.630418125E0,-2.985497680E0,-4.364291596E0,-1.526746452E0,5.503743478E0
7.640362125E0,-1.595680009E0,-3.519822679E0,-9.997369786E-1,3.991844236E0
7.650305125E0,-3.541649750E-1,-2.883203566E0,3.418568784E-1,2.924920812E0
7.660249125E0,6.174602170E-2,-2.049818045E0,2.283171651E0,3.068947601E0
7.670192125E0,-1.112897723E-1,-1.434153015E0,4.106211870E0,4.350879934E0
7.680135125E0,-1.690231240E-1,-1.463316003E0,4.152814178E0,4.406328193E0
7.690079125E0,7.140204602E-1,-1.806199068E0,2.681614959E0,3.311078235E0
7.700022125E0,2.254806808E0,-2.182156323E0,1.700952694E0,3.569201596E0
7.709966125E0,3.312190390E0,-2.386794253E0,1.479749018E0,4.342470396E0
7.719909125E0,3.240881548E0,-2.051312009E0,1.215818713E0,4.023606506E0
7.729852125E0,2.587162546E0,-1.495155846E0,1.019887726E0,3.157383730E0
7.739796125E0,1.551275522E0,-1.277656966E0,1.184256759E0,2.332665244E0
7.749739125E0,3.955646505E-1,-1.371398358E0,1.239212400E0,1.890198990E0
7.759682125E0,-5.684335979E-1,-1.560775639E0,1.725068074E0,2.394785420E0
7.769626125E0,-1.206061319E0,-2.051109111E0,2.086824489E0,3.164880556E0
7.779569125E0,-1.733685700E0,-2.508423940E0,2.024205487E0,3.659954183E0
7.789513125E0,-2.057872585E0,-2.599881409E0,2.130592067E0,3.941274600E0
7.799456125E0,-2.208326414E0,-2.242477954E0,2.494421613E0,4.015912363E0
7.809399125E0,-2.653637202E0,-1.596538380E0,2.794650409E0,4.171426147E0
7.819343125E0,-2.774392730E0,-8.859408796E-1,2.958261935E0,4.151320264E0
7.829286125E0,-2.236090748E0,1.082992047E-1,3.221985394E0,3.923393994E0
7.839230125E0,-1.490285408E0,1.535069525E0,3.717088439E0,4.288838480E0
7.849173125E0,-6.123142835E-1,2.812490848E0,4.395487661E0,5.254078924E0
7.859116125E0,3.263798833E-1,3.867377084E0,5.024673209E0,6.349052700E0
7.869060125E0,9.616754785E-1,4.727783757E0,5.434983441E0,7.267448244E0
7.879003125E0,1.164713025E0,5.139078661E0,5.725865462E0,7.781530775E0
7.888947125E0,1.145417506E0,5.367406000E0,5.753626873E0,7.951430728E0
7.898890125E0,1.111439044E0,5.123689958E0,5.555367086E0,7.638690922E0
7.908833125E0,1.212969804E0,4.439803709E0,5.088020774E0,6.860838732E0
7.918777125E0,1.409798777E0,3.643325813E0,4.413573099E0,5.894148206E0
7.928720125E0,1.659577504E0,2.914375073E0,3.871454932E0,5.122103362E0
7.938663125E0,1.611907201E0,2.606136761E0,3.445515677E0,4.611048896E0
7.948607125E0,1.411569314E0,2.839061181E0,3.060931440E0,4.407050896E0
7.958550125E0,1.357634597E0,3.183788458E0,2.703360754E0,4.391792346E0
7.968494125E0,1.289045880E0,3.475416584E0,2.359321110E0,4.393922600E0
7.978437125E0,1.093806765E0,3.785235398E0,2.092917287E0,4.461470949E0
7.988380125E0,8.812768480E-1,3.942487493E0,1.968325401E0,4.493791428E0
7.998324125E0,6.488035405E-1,3.849105120E0,1.705490718E0,4.259724738E0
8.008267125E0,4.551598379E-1,3.716806603E0,1.218922269E0,3.937968169E0
8.018211125E0,1.137924445E-1,3.561106360E0,4.593338728E-1,3.592410727E0
8.028154125E0,-3.706023753E-1,3.101556140E0,-5.631020701E-1,3.173969211E0
8.038097125E0,-6.527761388E-1,2.370025023E0,-1.886731600E0,3.098853244E0
8.048041125E0,-9.163998299E-1,1.501954989E0,-3.547660688E0,3.959994166E0
8.057984125E0,-9.250027652E-1,3.450535512E-1,-5.366656387E0,5.456710808E0
8.067928125E0,-7.684006622E-1,-1.142510855E0,-7.040030689E0,7.173409422E0
8.077871125E0,-5.944670099E-1,-2.955950530E0,-7.868075362E0,8.426009997E0
8.087814125E0,-8.055616911E-1,-4.693475804E0,-7.529196471E0,8.908784668E0
8.097758125E0,-1.292208347E0,-5.636538718E0,-5.682025378E0,8.107143981E0
8.107701125E0,-1.403565353E0,-5.289024659E0,-3.115247980E0,6.296709261E0
8.117644125E0,-1.157974036E0,-3.865661511E0,-1.721113309E0,4.387080328E0
8.127588125E0,-4.677242618E-1,-1.757337980E0,-1.930966371E0,2.652476934E0
8.137531125E0,2.930400829E-1,1.116754455E0,-2.560812653E0,2.809052233E0
8.147475125E0,6.237999693E-1,4.288097699E0,-2.437200176E0,4.971604668E0
8.157418125E0,1.271168603E0,6.179820482E0,-1.646419807E0,6.520486867E0
8.167361125E0,2.059233671E0,4.749490376E0,-7.655133802E-1,5.232983172E0
8.177305125E0,1.800388105E0,7.520571828E-2,8.559148425E-1,1.994904370E0
8.187248125E0,6.753949231E-1,-5.560875163E0,2.178763769E0,6.010532625E0
8.197191125E0,-7.479557995E-1,-1.140223892E1,2.955837679E-1,1.143056692E1
8.207135125E0,-1.695575303E0,-1.775974810E1,-6.705898567E0,1.905918948E1
8.217078667E0,-4.818929570E0,-1.999747753E1,-9.448805210E0,2.263627862E1
8.227022667E0,-4.660497508E0,-1.234058840E1,-2.853031933E-2,1.319132946E1
8.236965667E0,1.573052307E0,2.489470190E0,1.787810627E1,1.811901320E1
8.246908667E0,1.051120044E1,1.256048580E1,1.964945593E1,2.558030994E1
8.256852667E0,1.779088686E1,1.380175847E1,7.267348214E0,2.366048483E1
8.266795667E0,1.616167015E1,1.232718658E1,-7.802476035E0,2.177240784E1
8.276739667E0,5.349327579E0,7.781216143E0,-1.967563509E0,9.645410120E0
8.286682667E0,-3.586960993E0,4.852955103E-2,1.798227676E1,1.833660060E1
8.296625667E0,-6.110163186E0,-7.344920300E0,1.820552813E1,2.056023353E1
8.306569667E0,-6.577234095E0,-1.255589223E1,1.746167167E0,1.428144033E1
8.316512667E0,-9.428285576E0,-1.304123335E1,-4.866877323E0,1.681228215E1
8.326456667E0,-1.024997725E1,-1.000478245E1,1.247268694E0,1.437753055E1
8.336399667E0,-5.874706337E0,-5.947971949E0,5.490643086E0,1.000188514E1
8.346342667E0,-9.420055912E-1,-2.170702797E0,4.719695304E0,5.279663714E0
8.356286667E0,2.448558684E0,9.754734457E-1,2.077900468E0,3.356286404E0
8.366229667E0,4.568680435E0,3.308210775E0,4.568599159E-1,5.659136014E0
8.376172667E0,5.507028739E0,4.534782372E0,1.287843108E0,7.249148678E0
8.386116667E0,5.306261666E0,4.670174650E0,2.498417015E0,7.497268283E0
8.396059667E0,4.077014383E0,4.104760591E0,2.862130201E0,6.454680091E0
8.406003667E0,2.137784727E0,3.008749718E0,2.679553523E0,4.560998300E0
8.415946667E0,1.870691664E-1,1.742321160E0,2.434666138E0,2.999712837E0
8.425889667E0,-1.166228551E0,5.743778408E-1,2.218234959E0,2.571101957E0
8.435833667E0,-2.061535427E0,-3.697580373E-1,1.876945407E0,2.812396378E0
8.445776667E0,-2.436644105E0,-8.883446699E-1,1.336146079E0,2.917477865E0
8.455720667E0,-1.959016487E0,-8.955408382E-1,6.920657735E-1,2.262453099E0
8.465663667E0,-1.251721348E0,-1.013006723E-1,1.846609175E-1,1.269317854E0
8.475606667E0,-5.646427383E-1,1.090309837E0,-3.990092453E-1,1.291048156E0
8.485550667E0,-2.988716573E-2,2.327824498E0,-8.802842832E-1,2.488887414E0
8.495493667E0,2.616582227E-1,3.080569898E0,-1.125806530E0,3.290260820E0
8.505436667E0,1.109626845E-1,3.285249344E0,-1.138466921E0,3.478689825E0
8.515380667E0,-6.376444218E-1,3.106276013E0,-8.433135080E-1,3.281267857E0
8.525323667E0,-1.597247939E0,2.740306386E0,-6.379920387E-1,3.235353754E0
8.535267667E0,-2.671871451E0,2.341787649E0,-7.340530211E-1,3.627905771E0
8.545210667E0,-3.235756171E0,1.976382279E0,-1.026512622E0,3.928095350E0
8.555153667E0,-3.155944894E0,1.704577968E0,-1.259097319E0,3.801433977E0
8.565097667E0,-2.074237480E0,1.600226219E0,-1.428637921E0,2.983989173E0
8.575040667E0,-3.045191539E-1,1.426470358E0,-2.456928681E0,2.857279850E0
8.584984667E0,1.300204268E0,5.680102229E-1,-3.702153481E0,3.964732922E0
8.594927667E0,1.223236930E0,-6.153919655E-1,-3.724721979E0,3.968446759E0
8.604870667E0,-2.166580145E-1,-1.445351602E0,-3.069938491E0,3.400074159E0
8.614814667E0,-1.649226763E0,-1.525234509E0,-2.938427010E0,3.698735258E0
8.624757667E0,-2.112782910E0,-8.292433530E-1,-2.424132964E0,3.320830738E0
8.634700667E0,-1.659484826E0,2.379103410E-1,-1.781194035E0,2.446046485E0
8.644644667E0,-9.526155102E-1,8.403928238E-1,-1.882925793E0,2.271375343E0
8.654587667E0,-9.699870032E-1,6.521037090E-1,-1.845496012E0,2.184483821E0
8.664531667E0,-2.100074572E0,2.223462224E-2,-1.251045849E0,2.444570167E0
8.674474667E0,-3.255612731E0,-1.002792222E0,-7.047937001E-1,3.478698126E0
8.684417667E0,-3.829551446E0,-2.020261540E0,-8.772390532E-1,4.417744823E0
8.694361667E0,-3.934345245E0,-2.729809465E0,-1.786661181E0,5.111075268E0
8.704304667E0,-3.390917301E0,-3.538798648E0,-2.301969426E0,5.414838802E0
8.714248667E0,-2.698977097E0,-4.463626435E0,-2.155474309E0,5.643979785E0
8.724191667E0,-2.693868384E0,-4.963707215E0,-2.062949138E0,6.012576430E0
8.734134667E0,-2.670343866E0,-4.841713831E0,-2.436445446E0,6.042283972E0
8.744078667E0,-2.364350885E0,-4.573589172E0,-2.638471279E0,5.785274731E0
8.754021667E0,-2.333352164E0,-4.416770357E0,-1.754978628E0,5.294557837E0
8.763964667E0,-2.334928573E0,-4.657825330E0,-8.658112550E-1,5.281747569E0
8.773908667E0,-1.780323092E0,-5.698201700E0,-1.206521494E0,6.090545710E0
8.783851667E0,-1.171361017E0,-6.887708967E0,-2.105979967E0,7.297107171E0
8.793795667E0,-7.784708101E-1,-7.172149111E0,-2.829896840E0,7.749455194E0
8.803738667E0,6.097096413E-2,-6.335230118E0,-2.915539253E0,6.974182909E0
8.813681667E0,1.182399391E0,-4.796663373E0,-2.273892705E0,5.438440573E0
8.823625667E0,1.727496130E0,-3.258516458E0,-1.199207870E0,3.878178942E0
8.833568667E0,1.461377066E0,-2.001511273E0,2.755347983E-1,2.493509521E0
8.843511667E0,9.842018768E-1,-1.309742977E0,2.289401275E0,2.815215480E0
8.853455667E0,2.521667299E-1,-1.536355328E0,3.999143504E0,4.291517741E0
8.863398667E0,2.516637049E-3,-2.390531793E0,3.466593136E0,4.210928230E0
8.873342667E0,4.005494750E-1,-3.316397461E0,1.825317416E0,3.806667266E0
8.883285667E0,8.103349194E-1,-4.127579350E0,7.556508815E-1,4.273705912E0
8.893228667E0,9.377609512E-1,-4.509031234E0,7.099057746E-1,4.659906059E0
8.903172667E0,3.742791410E-1,-4.264063888E0,3.061739525E-1,4.291394669E0
8.913115667E0,-3.439536899E-2,-3.863881034E0,-1.192984021E-1,3.865875294E0
8.923059667E0,-2.847075813E-1,-3.602411676E0,5.916724429E-1,3.661762495E0
8.933002667E0,-9.887345653E-1,-3.452382647E0,1.875945533E0,4.051630984E0
8.942945667E0,-1.797321240E0,-3.279558833E0,2.590652457E0,4.549434023E0
8.952889667E0,-1.889729175E0,-2.421553611E0,2.927284555E0,4.243111254E0
8.962832667E0,-1.206298131E0,-1.376399481E0,3.170224964E0,3.660595175E0
8.972775667E0,-5.822253889E-1,-7.113944757E-1,3.560959010E0,3.677702758E0
8.982719667E0,-3.168764037E-1,-1.169940144E-1,3.989127223E0,4.003402835E0
8.992662667E0,-3.589962369E-1,6.986855525E-1,4.228568366E0,4.300910395E0
9.002606667E0,-2.386265519E-1,1.524113013E0,4.725800967E0,4.971222977E0
9.012549667E0,1.699636486E-1,2.091833798E0,5.275831586E0,5.677944629E0
9.022492667E0,4.413156778E-1,2.586169689E0,5.651563139E0,6.230826518E0
9.032436667E0,5.645456745E-1,3.059260306E0,5.936654078E0,6.702361307E0
9.042379667E0,6.862619003E-1,3.629452710E0,6.018948961E0,7.061984775E0
9.052322667E0,7.242794001E-1,4.244956357E0,6.084738908E0,7.454413639E0
9.062266667E0,6.293404254E-1,4.801649879E0,6.241036736E0,7.899522167E0
9.072209667E0,3.880558755E-1,5.272166551E0,6.451769804E0,8.340962841E0
9.082153667E0,-2.352788016E-2,5.788078083E0,6.576760470E0,8.761060423E0
9.092096667E0,-5.136981411E-1,6.213946002E0,6.415037010E0,8.945932625E0
9.102039667E0,-9.408880422E-1,6.472134486E0,6.057371015E0,8.914344549E0
9.111983667E0,-1.155218463E0,6.484448138E0,5.709609618E0,8.716779184E0
9.121926667E0,-1.216660639E0,6.181702700E0,5.255666878E0,8.204617342E0
9.131870667E0,-1.191213703E0,5.519727137E0,4.476861607E0,7.206154842E0
9.141813667E0,-1.117501802E0,4.723687783E0,3.496090000E0,5.982029909E0
9.151756667E0,-1.095312934E0,4.019828029E0,2.488001370E0,4.852718684E0
9.161700667E0,-8.835881793E-1,3.477936149E0,1.414325107E0,3.857082244E0
9.171643667E0,-4.782672302E-1,3.047686912E0,2.080035871E-1,3.091989739E0
9.181586667E0,-7.968190804E-2,2.772499986E0,-1.063958191E0,2.970709076E0
9.191530667E0,1.305211093E-1,2.444627894E0,-2.430169483E0,3.449487645E0
9.201473667E0,4.445877796E-1,1.673045688E0,-4.061944939E0,4.415442997E0
9.211417667E0,6.551584406E-1,5.041913724E-1,-5.717791042E0,5.777246397E0
9.221361000E0,8.150730644E-1,-1.286919540E0,-6.772619390E0,6.941821044E0
9.231304000E0,4.220587501E-1,-3.732729156E0,-7.824580264E0,8.679600040E0
9.241248000E0,-4.666291514E-1,-6.456074524E0,-8.510972046E0,1.069276794E1
9.251191000E0,-5.650031461E-1,-8.668797167E0,-6.717836827E0,1.098164853E1
9.261134000E0,2.181676925E-1,-8.985737890E0,-3.912916369E0,9.803162606E0
9.271078000E0,1.094582983E0,-7.019822711E0,-3.190771202E0,7.788263200E0
9.281021000E0,2.000288767E0,-3.852470777E0,-3.405065809E0,5.516988255E0
9.290965000E0,2.329681574E0,2.191998357E-1,-3.013942046E0,3.815666581E0
9.300908000E0,2.326089922E0,4.299538361E0,-2.403421980E0,5.447307744E0
9.310851000E0,2.885669045E0,7.307656580E0,-2.186135353E0,8.155250965E0
9.320795000E0,3.926808769E0,6.589260063E0,-1.221136025E0,7.767196951E0
9.330738000E0,4.346654347E0,1.602741106E0,8.443028569E-1,4.709037097E0
9.340681000E0,3.362227645E0,-4.022673284E0,-2.324063569E-1,5.247903182E0
9.350625000E0,2.932971411E-1,-9.937492690E0,-4.455598792E0,1.089459246E1
9.360568000E0,-4.318785348E0,-1.596508793E1,-6.995214704E0,1.795742098E1
9.370512000E0,-8.387809803E0,-1.666117089E1,-2.361102757E0,1.880225451E1
9.380455000E0,-7.986345239E0,-7.769451545E0,9.609066866E0,1.471326795E1
9.390398000E0,-2.287291161E-1,4.541076314E0,1.933866707E1,1.986599444E1
9.400342000E0,1.035027337E1,1.094580995E1,1.160013677E1,1.901320823E1
9.410285000E0,1.693176365E1,1.170523462E1,-3.524572957E0,2.088348037E1
9.420229000E0,1.340376423E1,8.198285757E0,-6.782081355E0,1.711342784E1
9.430172000E0,1.983899021E0,2.509580519E0,6.355695373E0,7.115385680E0
9.440115000E0,-4.855324102E0,-2.863931143E0,1.621080430E1,1.716293826E1
9.450059000E0,-6.474659314E0,-6.612099288E0,1.088903816E1,1.429028419E1
9.460002000E0,-6.737357172E0,-8.758833178E0,3.339705632E0,1.154394967E1
9.469945000E0,-6.521771500E0,-9.157434946E0,1.117642062E0,1.129784236E1
9.479889000E0,-5.448816783E0,-7.874765747E0,2.863085928E0,9.994938766E0
9.489832000E0,-3.315982309E0,-5.503962459E0,4.112359048E0,7.628947395E0
9.499776000E0,-9.028144822E-1,-2.755448336E0,3.692352378E0,4.694788132E0
9.509719000E0,8.781941959E-1,-1.767554820E-1,2.877323021E0,3.013545307E0
9.519662000E0,2.218515772E0,1.665975820E0,2.236345394E0,3.563499458E0
9.529606000E0,2.956822935E0,2.835468067E0,2.099752098E0,4.603437835E0
9.539549000E0,2.843030856E0,3.235595373E0,2.315029329E0,4.889914381E0
9.549492000E0,2.143153056E0,2.849092079E0,2.365353975E0,4.278472873E0
9.559436000E0,1.379818641E0,1.885840484E0,2.019967133E0,3.088779861E0
9.569379000E0,6.467122838E-1,8.096814930E-1,1.660836410E0,1.957600183E0
9.579323000E0,-2.461999387E-2,1.611720675E-1,1.224614241E0,1.235420018E0
9.589266000E0,-5.798639908E-1,-5.777166009E-2,6.038863993E-1,8.392011653E-1
9.599209000E0,-1.069248167E0,1.100902069E-1,5.016548502E-1,1.186199429E0
9.609153000E0,-1.365957524E0,4.832630181E-1,6.715834156E-1,1.596999494E0
9.619096000E0,-1.420749443E0,9.997265267E-1,5.654258998E-1,1.826934196E0
9.629039000E0,-1.131479206E0,1.634222515E0,2.239264324E-1,2.000267849E0
9.638983000E0,-6.015361109E-1,2.225873616E0,-1.942432614E-1,2.313890553E0
9.648926000E0,-6.827061902E-2,2.750602164E0,-4.897685572E-1,2.794699694E0
9.658870000E0,2.792513251E-1,3.130485240E0,-6.788523817E-1,3.215394174E0
9.668813000E0,2.660766712E-1,3.203764300E0,-6.637325784E-1,3.282597055E0
9.678756000E0,-2.053314096E-1,2.988669795E0,-2.739186645E-1,3.008212021E0
9.688700000E0,-1.024610230E0,2.417761107E0,1.010457520E-1,2.627851811E0
9.698643000E0,-1.932426713E0,1.630959184E0,2.167820120E-1,2.537970705E0
9.708586000E0,-2.727920229E0,8.585531062E-1,1.010469031E-1,2.861620641E0
9.718530000E0,-3.025873289E0,2.957164997E-1,-2.168381635E-1,3.048011844E0
9.728473000E0,-2.634733738E0,2.342441368E-1,-7.844507575E-1,2.758995320E0
9.738417000E0,-1.587026422E0,5.969685584E-1,-1.555904324E0,2.301274123E0
9.748360000E0,-3.743302676E-1,8.846755421E-1,-1.950230607E0,2.173976400E0
9.758303000E0,5.991910851E-1,6.174326438E-1,-2.416695160E0,2.565281373E0
9.768247000E0,8.875620201E-1,-2.529505491E-2,-3.024774013E0,3.152406066E0
9.778190000E0,4.382917902E-1,-6.181512666E-1,-3.237117403E0,3.324626259E0
9.788133000E0,-2.337991272E-1,-9.145366877E-1,-3.319747331E0,3.451342018E0
9.798077000E0,-6.674035335E-1,-5.460738087E-1,-3.290857993E0,3.401965668E0
9.808020000E0,-1.547490473E0,4.267882705E-1,-2.632263290E0,3.083129095E0
9.817964000E0,-3.240962825E0,1.256352051E0,-1.787394422E0,3.908585336E0
9.827907000E0,-4.995019639E0,9.691186917E-1,-1.104786374E0,5.206723074E0
9.837850000E0,-5.860335635E0,-4.624937081E-1,-8.461691420E-1,5.939144417E0
9.847794000E0,-5.424672461E0,-1.968373933E0,-1.248443107E0,5.904250794E0
9.857737000E0,-4.128978004E0,-2.377208912E0,-1.593583782E0,5.023852191E0
9.867680000E0,-2.717125100E0,-2.589961023E0,-1.152776812E0,3.926774922E0
9.877624000E0,-1.506421385E0,-2.949288797E0,-1.615234852E0,3.684642917E0
9.887567000E0,-7.095270943E-1,-3.273929719E0,-3.059728083E0,4.536957179E0
9.897510000E0,-4.097251450E-1,-3.381894463E0,-3.658344387E0,4.998856720E0
9.907454000E0,-5.573001704E-1,-3.055310512E0,-2.983369294E0,4.306506490E0
9.917397000E0,-1.219672467E0,-2.816838838E0,-2.592792245E0,4.018053458E0
9.927341000E0,-2.633521903E0,-3.575116873E0,-2.765100335E0,5.230934728E0
9.937284000E0,-4.179610798E0,-5.195827643E0,-3.246577613E0,7.416605525E0
9.947227000E0,-4.054416649E0,-6.197230566E0,-4.024140351E0,8.428384579E0
9.957171000E0,-2.699170640E0,-6.193641545E0,-3.632997292E0,7.671074700E0
9.967114000E0,-2.396754108E0,-6.016490791E0,-2.400614147E0,6.906919717E0
9.977057000E0,-2.592217464E0,-5.913842336E0,-1.100967557E0,6.550210082E0
9.987001000E0,-1.703396246E0,-5.453789256E0,-4.973898911E-1,5.735222116E0
9.996944000E0,4.838056397E-1,-4.305389670E0,-7.097712886E-1,4.390241837E0
1.000688800E1,2.356701265E0,-2.224098986E0,3.691464186E-1,3.261430090E0
1.001683100E1,2.628566680E0,-7.619296217E-1,3.605489066E0,4.526527471E0
1.002677400E1,1.818207787E0,-1.034143238E0,5.873128173E0,6.234498082E0
1.003671800E1,1.235781546E0,-2.367255197E0,3.436368878E0,4.351974754E0
1.004666100E1,6.944351383E-1,-4.129445196E0,2.223510464E-1,4.193327769E0
1.005660400E1,5.360018335E-1,-5.554908080E0,1.218223527E-2,5.580721292E0
1.006654800E1,9.574586128E-1,-6.005116203E0,1.667003907E0,6.305319154E0
1.007649100E1,9.772474909E-1,-5.410248549E0,1.589757364E0,5.723035077E0
1.008643500E1,5.978870098E-1,-4.401829551E0,7.542800018E-1,4.505830733E0
1.009637800E1,1.566018838E-1,-3.458917496E0,5.155092430E-1,3.500626254E0
1.010632100E1,-1.094114913E-1,-2.825355307E0,1.206635807E0,3.074178502E0
1.011626500E1,-3.843949337E-1,-2.601060208E0,2.237854268E0,3.452718552E0
1.012620800E1,-2.905637871E-1,-2.468800868E0,2.576689890E0,3.580326218E0
1.013615100E1,7.759635240E-2,-1.907464657E0,2.841061513E0,3.422874981E0
1.014609500E1,-2.007064082E-2,-1.221114975E0,3.335550309E0,3.552100854E0
1.015603800E1,-1.172258053E0,-6.141248739E-1,3.536979579E0,3.776448443E0
1.016598200E1,-2.446023916E0,-2.526108259E-1,3.858231454E0,4.575237172E0
1.017592500E1,-2.734028816E0,3.606235170E-1,4.441958408E0,5.228379996E0
1.018586800E1,-2.413554328E0,1.368944281E0,5.194365254E0,5.889030763E0
1.019581200E1,-1.878658934E0,2.614804088E0,5.647720349E0,6.501023377E0
1.020575500E1,-1.405329604E0,3.740887191E0,5.914684920E0,7.138115015E0
1.021569800E1,-8.764702906E-1,4.492301765E0,6.217773004E0,7.720730306E0
1.022564137E1,-3.043695749E-1,4.875877358E0,6.664559337E0,8.263363238E0
1.023558437E1,3.081755275E-1,5.000363410E0,7.096743418E0,8.686908168E0
1.024552738E1,6.112440969E-1,5.559643739E0,7.275736045E0,9.177123343E0
1.025547137E1,9.957607258E-1,5.808601225E0,7.230952805E0,9.328347446E0
1.026541437E1,1.102908979E0,6.047154175E0,7.040371581E0,9.346192478E0
1.027535837E1,1.064154511E0,6.198956079E0,6.728654761E0,9.210552437E0
1.028530137E1,9.107541239E-1,6.194471850E0,6.258651474E0,8.852777691E0
1.029524438E1,5.525428026E-1,6.012563801E0,5.763538488E0,8.347131419E0
1.030518837E1,9.351042688E-2,5.668146427E0,5.215863127E0,7.703366555E0
1.031513137E1,-3.734822021E-1,5.267367157E0,4.447589276E0,6.904034769E0
1.032507438E1,-7.695222312E-1,4.926869756E0,3.441445431E0,6.058857707E0
1.033501837E1,-1.049493129E0,4.648784950E0,2.299420479E0,5.291499965E0
1.034496137E1,-1.153134807E0,4.400511004E0,1.188460615E0,4.701771540E0
1.035490438E1,-1.078496415E0,4.118308005E0,-8.047873735E-2,4.257944594E0
1.036484837E1,-7.664533201E-1,3.572180986E0,-1.875307017E0,4.106665813E0
1.037479138E1,-3.119054298E-1,2.515371602E0,-4.366333152E0,5.048687402E0
1.038473537E1,-8.734570742E-3,6.297767007E-1,-7.532001965E0,7.558290057E0
1.039467837E1,-6.435332257E-2,-2.512614055E0,-1.174406715E1,1.201001598E1
1.040462138E1,-3.277370586E-1,-7.062895641E0,-1.474128440E1,1.634923155E1
1.041456537E1,-1.412023935E0,-1.183081995E1,-1.137905705E1,1.647558957E1
1.042450837E1,-2.684519856E0,-1.431628304E1,-4.184333594E0,1.515490860E1
1.043445138E1,-2.609498033E0,-1.320219901E1,-3.075950598E0,1.380467351E1
1.044439537E1,1.209386374E-1,-9.736298770E0,-6.357640157E0,1.162883177E1
1.045433838E1,2.218466071E0,-3.880302939E0,-7.438083403E0,8.677754739E0
1.046428237E1,1.406586902E0,3.980751087E0,-4.228851956E0,5.975621707E0
1.047422537E1,1.513949967E0,1.010758352E1,5.467848301E-1,1.023495299E1
1.048416838E1,2.695167636E0,1.276332922E1,3.816428540E0,1.359160139E1
1.049411237E1,3.528638818E0,9.681815000E0,5.004723678E0,1.145583226E1
1.050405538E1,2.951326552E0,2.779561669E0,3.663573552E0,5.464253165E0
1.051399838E1,2.083036809E0,-5.239125105E0,-1.756403010E0,5.905287948E0
1.052394237E1,1.363845948E0,-1.620349528E1,-1.179560685E1,2.008854589E1
1.053388538E1,-2.565589828E0,-2.702857660E1,-1.416050503E1,3.062100761E1
1.054382837E1,-7.653190772E0,-2.366722516E1,-2.856353152E-1,2.487549926E1
1.055377237E1,-7.181217558E0,-4.992441602E0,2.072324095E1,2.249326731E1
1.056371538E1,2.624442639E0,1.058130154E1,2.567116186E1,2.789014508E1
1.057365937E1,1.385604051E1,1.589843201E1,8.631587241E0,2.278715202E1
1.058360238E1,1.730487448E1,1.508900662E1,-9.316071661E0,2.477753000E1
1.059354537E1,1.010739407E1,9.665896540E0,-3.255617993E0,1.435924856E1
1.060348937E1,1.548631265E0,1.809131446E0,1.500941199E1,1.519715972E1
1.061343238E1,-1.757987898E0,-4.930689157E0,1.674031412E1,1.753967884E1
1.062337537E1,-2.625680787E0,-9.817661022E0,5.037967438E0,1.134291777E1
1.063331937E1,-4.946166152E0,-1.150149892E1,-1.405776477E0,1.259862074E1
1.064326238E1,-7.276890285E0,-9.895137799E0,9.760458881E-1,1.232150761E1
1.065320537E1,-5.479708208E0,-7.373896177E0,4.023756773E0,1.002956457E1
1.066314938E1,-1.402101210E0,-4.498119745E0,4.509419781E0,6.521796977E0
1.067309237E1,1.212452910E0,-1.242441525E0,3.709277728E0,4.095417472E0
1.068303637E1,2.695712304E0,1.466274109E0,2.215933934E0,3.785127183E0
1.069297938E1,3.423153293E0,3.313623542E0,1.692431547E0,5.055927609E0
1.070292237E1,3.320512439E0,4.307988757E0,2.150254792E0,5.848774714E0
1.071286637E1,2.610737058E0,4.304527205E0,2.558157725E0,5.647041118E0
1.072280938E1,1.648121347E0,3.307877483E0,2.378172826E0,4.394776833E0
1.073275237E1,5.386054525E-1,1.529532797E0,1.945005243E0,2.532313528E0
1.074269638E1,-4.920010972E-1,-1.073531252E-1,1.661144996E0,1.735797359E0
1.075263937E1,-1.500663924E0,-8.044698697E-1,1.386646142E0,2.195894238E0
1.076258237E1,-2.263379119E0,-9.576622421E-1,9.811851521E-1,2.646266485E0
1.077252638E1,-2.110455134E0,-7.788812846E-1,5.013683367E-1,2.304787872E0
1.078246937E1,-1.597777697E0,-1.283779585E-1,3.765722363E-1,1.646566464E0
1.079241337E1,-8.431217194E-1,1.035891556E0,2.406104390E-1,1.357136298E0
1.080235638E1,-1.106717490E-1,2.308005361E0,-1.693214782E-1,2.316852767E0
1.081229937E1,2.963857501E-1,3.324143853E0,-5.138871523E-1,3.376663571E0
1.082224338E1,5.097576293E-1,3.783243837E0,-6.041213842E-1,3.864938475E0
1.083218637E1,1.251517756E-1,3.759804688E0,-3.903986720E-1,3.782090081E0
1.084212937E1,-6.011645204E-1,3.336401955E0,-2.311883636E-1,3.398003068E0
1.085207338E1,-1.331774993E0,2.581569684E0,-3.255612731E-1,2.923032126E0
1.086201637E1,-2.181114057E0,1.857406644E0,-5.841649103E-1,2.923776088E0
1.087195937E1,-2.656945264E0,1.340137389E0,-9.817843455E-1,3.133564561E0
1.088190338E1,-2.478537359E0,1.127910358E0,-1.227752734E0,2.987089887E0
1.089184637E1,-1.333605464E0,1.145164322E0,-1.594278431E0,2.373105260E0
1.090179038E1,2.241541815E-1,9.961854529E-1,-2.429039217E0,2.634931132E0
1.091173337E1,1.118815014E0,3.938801408E-1,-3.547473577E0,3.740515657E0
1.092167637E1,7.365337023E-1,-3.378217149E-1,-3.828841009E0,3.913646494E0
1.093162038E1,-4.786422560E-1,-5.261084908E-1,-3.606698270E0,3.676161172E0
1.094156337E1,-1.397256207E0,-6.074438453E-2,-3.276248140E0,3.562276893E0
1.095150637E1,-1.407791720E0,8.116414797E-1,-2.128598167E0,2.677978636E0
1.096145038E1,-4.967443585E-1,1.297339278E0,-1.589386066E0,2.110922127E0
1.097139337E1,-3.476780739E-1,1.300890877E0,-2.146966610E0,2.534297288E0
1.098133637E1,-1.981949998E0,5.183638537E-1,-2.207970611E0,3.011969638E0
1.099128037E1,-3.441260951E0,-7.607250953E-1,-1.424874653E0,3.801479630E0
1.100122337E1,-4.040831228E0,-1.700704772E0,-2.761265731E-1,4.392830479E0
1.101116738E1,-3.441560913E0,-2.276212295E0,-8.876424193E-2,4.127149503E0
1.102111037E1,-2.189364186E0,-2.584274021E0,-9.981740910E-1,3.531025244E0
1.103105337E1,-1.090520922E0,-2.668945797E0,-1.930615684E0,3.469839257E0
1.104099738E1,-6.774134550E-1,-2.873629920E0,-2.487088035E0,3.860342575E0
1.105094037E1,-8.316808379E-1,-3.059658501E0,-2.570547098E0,4.081778478E0
1.106088338E1,-1.384503137E0,-2.960213735E0,-2.589211118E0,4.169379871E0
1.107082737E1,-2.689123076E0,-2.849125409E0,-2.836259780E0,4.836658770E0
1.108077037E1,-4.043159297E0,-3.529498651E0,-3.019368554E0,6.158009767E0
1.109071338E1,-4.684737725E0,-4.742043947E0,-3.218225634E0,7.402075694E0
1.110065737E1,-3.961795291E0,-5.539967859E0,-3.156387820E0,7.506653707E0
1.111060037E1,-2.167229843E0,-6.233050025E0,-2.372705387E0,7.012669153E0
1.112054438E1,-1.387375290E0,-7.075675900E0,-1.854383487E0,7.445047868E0
1.113048737E1,-1.983529623E0,-7.393030606E0,-1.795028401E0,7.862150995E0
1.114043038E1,-1.763128477E0,-6.812099791E0,-1.947080712E0,7.300989583E0
1.115037437E1,-1.742104448E-1,-5.569747728E0,-1.961149698E0,5.907499232E0
1.116031737E1,1.304282262E0,-3.626807429E0,-1.796129578E0,4.252171893E0
1.117026038E1,1.846090527E0,-1.935817806E0,-6.981353295E-1,2.764567552E0
1.118020437E1,2.186549629E0,-1.239938917E0,1.780975349E0,3.080636458E0
1.119014737E1,1.816274990E0,-1.440349894E0,4.301270306E0,4.886142538E0
1.120009038E1,7.105316459E-1,-2.178817563E0,4.057578238E0,4.660047462E0
1.121003437E1,7.293918400E-1,-3.626611547E0,2.878457966E0,4.687200021E0
1.121997767E1,1.424828022E0,-4.907483897E0,2.067648983E0,5.512595161E0
1.122992167E1,1.372562977E0,-5.489467796E0,1.394240360E0,5.827700403E0
1.123986467E1,5.668403412E-1,-5.299864812E0,8.141625068E-1,5.391913907E0
1.124980767E1,-7.484319091E-2,-4.740796151E0,-3.194474244E-1,4.752135973E0
1.125975167E1,-2.606291127E-1,-4.433415626E0,-7.036972010E-1,4.496475441E0
1.126969467E1,-5.964455250E-1,-4.205993435E0,7.965480620E-1,4.322107918E0
1.127963767E1,-1.102191233E0,-4.016031432E0,2.609130827E0,4.914356281E0
1.128958167E1,-1.673840325E0,-3.613087522E0,2.932921856E0,4.945520548E0
1.129952467E1,-2.181745410E0,-2.782986383E0,2.701780252E0,4.450240754E0
1.130946767E1,-2.170085331E0,-2.074251221E0,3.191826917E0,4.381728830E0
1.131941167E1,-2.109628191E0,-1.367356762E0,3.631491049E0,4.416777429E0
1.132935467E1,-2.053698696E0,-3.268856674E-1,4.070075492E0,4.570563104E0
1.133929767E1,-1.875860749E0,8.900111264E-1,4.742809932E0,5.177375726E0
1.134924167E1,-1.592187759E0,1.961826221E0,5.465933338E0,6.021648548E0
1.135918467E1,-1.160022535E0,2.777489415E0,5.877821733E0,6.603702603E0
1.136912867E1,-6.381244051E-1,3.571415586E0,6.101154966E0,7.098331069E0
1.137907167E1,-1.299881355E-1,4.374983230E0,6.467552608E0,7.809392545E0
1.138901467E1,3.633703928E-1,4.945452792E0,6.909398044E0,8.504664760E0
1.139895867E1,6.691945356E-1,5.506224162E0,7.174851694E0,9.068893134E0
1.140890167E1,7.145269753E-1,5.792284570E0,7.224899767E0,9.287641572E0
1.141884467E1,5.071468475E-1,5.898654193E0,7.050126491E0,9.206280615E0
1.142878867E1,2.832965751E-1,6.558239999E0,7.006983395E0,9.601488694E0
1.143873167E1,4.549192250E-1,6.639039164E0,6.784991514E0,9.503678360E0
1.144867467E1,5.486948231E-1,6.395326631E0,6.339646520E0,9.021772926E0
1.145861867E1,5.000604607E-1,5.935762378E0,5.835493155E0,8.338843794E0
1.146856167E1,2.287452690E-1,5.329283323E0,5.266657889E0,7.496083675E0
1.147850467E1,-2.473183648E-1,4.887944257E0,4.518416600E0,6.661024996E0
1.148844867E1,-6.682833932E-1,4.601417241E0,3.477357275E0,5.806174036E0
1.149839167E1,-8.870980436E-1,4.453338259E0,2.227948793E0,5.057956149E0
1.150833567E1,-7.452880805E-1,4.438083458E0,1.029359046E0,4.616450926E0
1.151827867E1,-2.369617034E-1,4.463773200E0,-3.283954185E-1,4.482105039E0
1.152822167E1,4.277635860E-1,4.148389590E0,-2.338406789E0,4.781240863E0
1.153816567E1,1.139971775E0,3.102372411E0,-5.626121319E0,6.525143012E0
1.154810867E1,1.713530640E0,1.211629037E0,-9.545572536E0,9.773545274E0
1.155805167E1,1.184315231E0,-1.634370450E0,-1.245064469E1,1.261318051E1
1.156799567E1,-8.754043432E-1,-5.573729097E0,-1.265650410E1,1.385712398E1
1.157793867E1,-2.464745239E0,-1.015647559E1,-9.296671768E0,1.398774719E1
1.158788167E1,-2.661323951E0,-1.292737286E1,-6.203720976E0,1.458375014E1
1.159782567E1,-2.591171689E0,-1.143721931E1,-5.968722548E0,1.315863994E1
1.160776867E1,-2.127169400E0,-7.322388639E0,-5.928874358E0,9.658870337E0
1.161771167E1,-1.769384706E0,-1.466729023E0,-4.061317533E0,4.666510084E0
1.162765567E1,-8.842459910E-1,4.809830133E0,-2.606409241E0,5.541635681E0
1.163759867E1,9.040744840E-1,8.609566627E0,-1.755066336E0,8.833020209E0
1.164754267E1,2.535184307E0,7.548157237E0,1.330358505E-1,7.963638345E0
1.165748567E1,3.194104115E0,1.778599625E0,2.365288779E0,4.354343663E0
1.166742867E1,1.270937930E0,-3.862042669E0,9.864621180E-1,4.183750030E0
1.167737267E1,-1.901826771E0,-9.626907306E0,-4.786520793E0,1.091810747E1
1.168731567E1,-1.708135999E0,-1.462760050E1,-4.197933049E0,1.531362357E1
1.169725867E1,-1.332496978E0,-1.146337273E1,3.275869240E0,1.199649040E1
1.170720267E1,5.270618793E-1,-9.852207541E-1,1.490203489E1,1.494386489E1
1.171714567E1,6.486856021E0,7.080583468E0,1.303384364E1,1.618934969E1
1.172708867E1,1.054553763E1,8.541098070E0,-2.082602799E-2,1.357052519E1
1.173703267E1,9.639711539E0,5.049812143E0,-2.099410620E0,1.108296739E1
1.174697567E1,3.122207336E0,-6.731314659E-3,8.477662797E0,9.034322911E0
1.175691967E1,-2.025449190E0,-3.874731127E0,1.433175361E1,1.498382952E1
1.176686267E1,-3.603383776E0,-5.972689299E0,7.772495021E0,1.044361388E1
1.177680567E1,-4.728679843E0,-6.859296176E0,2.245629603E0,8.628627319E0
1.178674967E1,-5.262996363E0,-6.838746722E0,2.939492957E0,9.116370236E0
1.179669267E1,-4.312993681E0,-5.973485105E0,4.587799661E0,8.679420748E0
1.180663567E1,-1.894638497E0,-4.629901367E0,4.385116455E0,6.652434744E0
1.181657967E1,5.913705073E-1,-2.759872924E0,3.563982605E0,4.546272060E0
1.182652267E1,1.920547656E0,-4.712639469E-1,2.808334355E0,3.434724859E0
1.183646567E1,2.357145069E0,1.574832931E0,2.415101793E0,3.724103692E0
1.184640967E1,2.410721644E0,2.788721332E0,2.397735271E0,4.397462898E0
1.185635267E1,1.986313775E0,3.047510326E0,2.593394508E0,4.467488856E0
1.186629567E1,1.276051613E0,2.585276234E0,2.767730705E0,3.996535272E0
1.187623967E1,4.425303637E-1,1.740471101E0,2.607009458E0,3.165686512E0
1.188618267E1,-2.946452898E-1,7.419648886E-1,2.330263957E0,2.463221032E0
1.189612567E1,-9.781253772E-1,-1.293450880E-1,2.082326518E0,2.304244591E0
1.190606967E1,-1.574773581E0,-2.759295219E-1,1.844761601E0,2.441146104E0
1.191601267E1,-1.669740257E0,-2.960363424E-1,1.400072226E0,2.199061682E0
1.192595667E1,-1.358245046E0,9.444422722E-3,8.887744403E-1,1.623218657E0
1.193589967E1,-8.332387555E-1,6.626737207E-1,3.675840425E-1,1.126295393E0
1.194584267E1,-1.591358112E-1,1.466726684E0,-1.392711751E-1,1.481893327E0
1.195578667E1,6.149013841E-1,2.231814972E0,-4.375704630E-1,2.355964705E0
1.196572967E1,1.063527836E0,2.872735881E0,-7.107922125E-1,3.144666670E0
1.197567267E1,8.783234194E-1,3.359501966E0,-7.528219255E-1,3.553089689E0
1.198561667E1,1.193649872E-1,3.541049241E0,-1.494173734E-1,3.546209706E0
1.199555967E1,-8.079603651E-1,3.295924605E0,8.139195549E-1,3.489754146E0
1.200550267E1,-1.777947076E0,2.745373583E0,1.065775505E0,3.440065311E0
1.201544667E1,-2.524471623E0,1.984396473E0,4.505086702E-1,3.242490463E0
1.202538967E1,-2.879745815E0,1.296111363E0,-3.646568898E-1,3.178964497E0
1.203533267E1,-2.536819773E0,7.794139659E-1,-1.051905910E0,2.854723583E0
1.204527667E1,-1.288536588E0,3.923949480E-1,-2.000861063E0,2.412000275E0
1.205521967E1,3.004951367E-1,-3.261103266E-1,-3.709008756E0,3.735423835E0
1.206516267E1,1.068845001E0,-1.328507861E0,-5.263198092E0,5.532505484E0
1.207510667E1,3.059298313E-1,-1.864306943E0,-5.060665745E0,5.401811846E0
1.208504967E1,-1.157617210E0,-1.696536292E0,-3.924791479E0,4.429706666E0
1.209499367E1,-1.740241598E0,-9.582744455E-1,-3.027671308E0,3.621260041E0
1.210493667E1,-9.072618744E-1,2.531774211E-1,-2.382850306E0,2.562264330E0
1.211487967E1,-8.263212070E-2,1.617135782E0,-2.383519666E0,2.881513873E0
1.212482367E1,-8.752656180E-1,2.378054420E0,-2.435976938E0,3.514998772E0
1.213476667E1,-3.118265728E0,1.698499787E0,-1.243489492E0,3.762279734E0
1.214470967E1,-5.297849861E0,-5.167780888E-1,9.847997546E-2,5.323905620E0
1.215465367E1,-6.098851163E0,-2.757587832E0,8.240918098E-1,6.743841892E0
1.216459667E1,-5.472528412E0,-3.537584181E0,2.888911910E-1,6.522769901E0
1.217453967E1,-3.695123373E0,-3.418460026E0,-1.135412189E0,5.160326204E0
1.218448367E1,-1.734367485E0,-3.450267125E0,-2.221704697E0,4.455148209E0
1.219442667E1,-5.191755203E-1,-3.802446093E0,-2.507843311E0,4.584475715E0
1.220436967E1,-1.814981586E-1,-4.148033495E0,-2.405859100E0,4.798674970E0
1.221431367E1,-8.448750070E-1,-4.158077842E0,-2.254772310E0,4.804937386E0
1.222425662E1,-2.026475376E0,-4.290296252E0,-2.350822767E0,5.295244287E0
1.223420062E1,-2.375212381E0,-4.711210409E0,-2.800183044E0,5.973119993E0
1.224414363E1,-1.937223769E0,-5.291388103E0,-2.808719394E0,6.296072476E0
1.225408662E1,-1.294982120E0,-6.452420014E0,-2.129732088E0,6.917113668E0
1.226403062E1,-1.165525642E0,-7.569069804E0,-2.223911144E0,7.974650368E0
1.227397363E1,-1.359871011E0,-7.582358771E0,-2.518796901E0,8.104674671E0
1.228391662E1,-9.251842482E-1,-6.668865227E0,-2.275810592E0,7.106971447E0
1.229386063E1,4.134288445E-1,-5.387335650E0,-1.243410408E0,5.544400622E0
1.230380362E1,1.798612890E0,-4.231776733E0,3.361323081E-2,4.598268423E0
1.231374662E1,2.587877368E0,-2.595991257E0,8.230341947E-1,3.756815828E0
1.232369063E1,2.760925423E0,-6.674947500E-1,1.637179452E0,3.278508043E0
1.233363362E1,2.482749401E0,2.234922767E-1,3.535537655E0,4.325970399E0
1.234357662E1,2.270001968E0,-6.923863471E-2,4.617591809E0,5.145858241E0
1.235352063E1,2.821959829E0,-9.749249768E-1,2.884637303E0,4.151513984E0
1.236346362E1,3.530996123E0,-2.026295866E0,4.751764651E-1,4.098731661E0
1.237340663E1,3.679455174E0,-2.703405193E0,-3.264515117E-2,4.565945217E0
1.238335062E1,3.288934844E0,-3.048033067E0,5.840245771E-1,4.522021969E0
1.239329362E1,2.966239291E0,-3.391091548E0,6.072356844E-1,4.546076616E0
1.240323663E1,1.983923726E0,-3.355861489E0,1.375288510E-1,3.900855530E0
1.241318062E1,-2.770878553E-2,-3.197041757E0,5.116559279E-1,3.237844276E0
1.242312362E1,-1.980350785E0,-2.956297270E0,1.680337751E0,3.935100728E0
1.243306763E1,-3.168373443E0,-2.447308257E0,2.198480287E0,4.567408845E0
1.244301062E1,-3.389063734E0,-1.883343723E0,2.302908928E0,4.509559413E0
1.245295363E1,-3.096409421E0,-1.412797229E0,2.743586674E0,4.371614708E0
1.246289762E1,-2.581752117E0,-1.080754318E0,3.114663551E0,4.187433931E0
1.247284062E1,-2.087172544E0,-4.461261821E-1,3.374469668E0,3.992788918E0
1.248278363E1,-1.367414650E0,1.808818620E-1,4.013098469E0,4.243524525E0
1.249272762E1,-6.040995303E-1,7.269884151E-1,4.594608743E0,4.690829127E0
1.250267062E1,-2.131983997E-1,1.610144851E0,5.013546542E0,5.270072953E0
1.251261363E1,-4.495631754E-2,2.626856369E0,5.227099721E0,5.850210847E0
1.252255762E1,1.471617003E-1,3.595240066E0,5.475432140E0,6.551928328E0
1.253250063E1,2.791310187E-1,4.420455272E0,5.552407225E0,7.102644925E0
1.254244362E1,2.784413396E-1,5.063827334E0,5.675365400E0,7.611152953E0
1.255238762E1,2.311959833E-1,5.639373448E0,5.855342113E0,8.132712692E0
1.256233063E1,1.030111291E-1,6.143560143E0,6.014696281E0,8.598285520E0
1.257227362E1,-1.730710052E-1,6.476518144E0,6.048965058E0,8.863702337E0
1.258221762E1,-4.506324850E-1,6.568107176E0,5.853946967E0,8.809755763E0
1.259216063E1,-7.672193053E-1,6.420323478E0,5.505291531E0,8.492197234E0
1.260210362E1,-1.062059015E0,6.115827384E0,5.025706996E0,7.986804414E0
1.261204763E1,-1.336186425E0,5.608429399E0,4.380631641E0,7.240843048E0
1.262199062E1,-1.593038967E0,5.118743799E0,3.544573942E0,6.426765568E0
1.263193462E1,-1.733371412E0,4.799740178E0,2.568969519E0,5.713290350E0
1.264187763E1,-1.662149694E0,4.561530460E0,1.575018287E0,5.104016491E0
1.265182062E1,-1.378491761E0,4.364695054E0,5.514818984E-1,4.610307445E0
1.266176462E1,-8.435634765E-1,4.184669809E0,-8.569036067E-1,4.354003278E0
1.267170763E1,-9.220240474E-2,3.686576498E0,-2.967191802E0,4.733241463E0
1.268165062E1,7.433618615E-1,2.467120963E0,-5.664582549E0,6.223083493E0
1.269159463E1,1.516469532E0,5.726985204E-1,-8.323847111E0,8.480217814E0
1.270153762E1,2.011291911E0,-1.965070841E0,-9.611235598E0,1.001412244E1
1.271148062E1,1.354960665E0,-4.846785121E0,-8.821523516E0,1.015610760E1
1.272142463E1,-2.326833688E-1,-7.711663513E0,-6.678856364E0,1.020446069E1
1.273136762E1,-8.141052040E-1,-9.660749820E0,-4.634851035E0,1.074591543E1
1.274131062E1,1.238573299E-1,-9.092821459E0,-4.046022386E0,9.953142211E0
1.275125463E1,2.034528307E0,-6.524766444E0,-4.631089522E0,8.255838706E0
1.276119762E1,3.141896666E0,-2.747559273E0,-4.643517194E0,6.243624632E0
1.277114063E1,2.703284448E0,1.850573003E0,-3.804855731E0,5.020885816E0
1.278108462E1,2.204191117E0,5.422880289E0,-3.111002317E0,6.629059098E0
1.279102762E1,2.153082213E0,5.977493956E0,-1.989209901E0,6.657563596E0
1.280097163E1,2.879139751E0,2.112366296E0,1.652224338E-1,3.574749715E0
1.281091462E1,3.072999508E0,-3.179572615E0,-9.328180075E-1,4.519198759E0
1.282085762E1,1.789340229E0,-9.228550537E0,-5.848541216E0,1.107128348E1
1.283080163E1,-9.636959839E-1,-1.669544142E1,-1.126895281E1,2.016570781E1
1.284074462E1,-6.173811883E0,-1.832395062E1,-5.562691308E0,2.012030452E1
1.285068763E1,-9.597045575E0,-6.821554154E0,1.458258863E1,1.874269927E1
1.286063162E1,-3.198647694E0,8.485134954E0,2.534249688E1,2.691599915E1
1.287057462E1,7.425543464E0,1.460276971E1,1.421904268E1,2.169241235E1
1.288051763E1,1.355977964E1,1.251231410E1,-5.601996877E0,1.928232343E1
1.289046162E1,9.386612470E0,7.285181052E0,-7.142299660E0,1.386343396E1
1.290040462E1,9.629605503E-1,5.352763402E-1,1.166795979E1,1.171985919E1
1.291034763E1,-2.905109282E0,-5.098206623E0,1.546835176E1,1.654391963E1
1.292029162E1,-3.318943339E0,-9.197444519E0,6.262569108E0,1.161155211E1
1.293023463E1,-3.494898337E0,-1.074494406E1,2.419016504E-1,1.130162172E1
1.294017762E1,-4.641974698E0,-9.195983884E0,1.128613778E0,1.036280936E1
1.295012162E1,-4.297907572E0,-6.752802007E0,4.048500436E0,8.970100347E0
1.296006463E1,-1.941778457E0,-4.307378892E0,5.003626741E0,6.881881796E0
1.297000762E1,4.371384269E-1,-1.667903062E0,4.325604663E0,4.656591708E0
1.297995162E1,2.273854698E0,6.125291687E-1,3.264876475E0,4.025546617E0
1.298989463E1,3.262900116E0,2.343671622E0,2.664936361E0,4.820912740E0
1.299983762E1,3.105061254E0,3.612656583E0,2.669588406E0,5.460713802E0
1.300978163E1,2.256822343E0,3.967142277E0,2.675497895E0,5.290534370E0
1.301972462E1,1.344545020E0,3.204330896E0,2.340809118E0,4.189859798E0
1.302966762E1,4.419935162E-1,1.824573358E0,1.914039558E0,2.681039656E0
1.303961163E1,-4.310117143E-1,6.078180671E-1,1.556381457E0,1.725554154E0
1.304955462E1,-1.214899824E0,-3.583243918E-1,1.342429205E0,1.845669017E0
1.305949762E1,-1.987233835E0,-7.465543681E-1,1.241137011E0,2.459036970E0
1.306944163E1,-2.554923045E0,-4.625346386E-1,9.348028448E-1,2.759606207E0
1.307938462E1,-2.355750216E0,-1.295906711E-1,3.384510215E-1,2.383464268E0
1.308932863E1,-1.802809729E0,5.108034039E-1,-1.458623028E-1,1.879446421E0
1.309927162E1,-1.393638827E0,1.443602700E0,-5.239385891E-1,2.073820046E0
1.310921462E1,-9.593547186E-1,2.359203581E0,-7.185865510E-1,2.646236884E0
1.311915863E1,-5.351189771E-1,3.109420645E0,-6.970712093E-1,3.231216078E0
1.312910162E1,-1.871657916E-1,3.539582759E0,-3.957992700E-1,3.566557753E0
1.313904462E1,-8.917091578E-2,3.624658577E0,1.366412437E-1,3.628329104E0
1.314898863E1,-3.734428795E-1,3.441148392E0,5.343559885E-1,3.502356087E0
1.315893162E1,-8.222460631E-1,2.901146917E0,5.203530765E-1,3.059985187E0
1.316887463E1,-1.145282362E0,2.211535074E0,9.845543543E-2,2.492439075E0
1.317881862E1,-1.296019562E0,1.610162392E0,-4.650109710E-1,2.118613895E0
1.318876162E1,-8.334153414E-1,1.289764795E0,-1.080584748E0,1.877694799E0
1.319870463E1,6.917526551E-2,7.247916162E-1,-1.779891275E0,1.923049936E0
1.320864862E1,4.039024146E-1,-4.589473718E-1,-2.244679431E0,2.326446990E0
1.321859162E1,-1.448808476E-2,-1.483635077E0,-2.777177174E0,3.148665750E0
1.322853525E1,-9.978318096E-1,-1.797641083E0,-3.849345440E0,4.364016739E0
1.323847925E1,-1.700346046E0,-1.531181127E0,-4.500004302E0,5.048339434E0
1.324842225E1,-1.305391479E0,-8.898362947E-1,-3.825406939E0,4.138791345E0
1.325836525E1,-3.875210014E-1,-6.594840646E-2,-3.342559658E0,3.365594567E0
1.326830925E1,5.807536447E-1,7.320176053E-1,-4.372340289E0,4.471071926E0
1.327825225E1,8.486758433E-1,9.652495891E-1,-5.820995568E0,5.961203474E0
1.328819525E1,-5.092984036E-1,4.423190600E-1,-5.769457625E0,5.808758240E0
1.329813925E1,-2.745034153E0,-9.885209227E-1,-3.560762544E0,4.603413517E0
1.330808225E1,-4.692975283E0,-3.540606022E0,-4.112335074E-1,5.893133377E0
1.331802525E1,-5.397645460E0,-5.812075056E0,2.248049766E-1,7.935069644E0
1.332796925E1,-4.706171864E0,-6.433231791E0,-1.181205389E0,8.057901157E0
1.333791225E1,-2.992490073E0,-6.157487041E0,-2.357368871E0,7.240637506E0
1.334785525E1,-1.336334944E0,-6.062104336E0,-2.903776994E0,6.853234338E0
1.335779925E1,-3.584642134E-1,-5.983047057E0,-2.927020846E0,6.670292326E0
1.336774225E1,-1.362197325E-1,-5.350274827E0,-2.233713124E0,5.799437116E0
1.337768525E1,-6.307587406E-1,-4.635945050E0,-1.312261373E0,4.859204976E0
1.338762925E1,-1.239536628E0,-4.023086098E0,-1.589559874E0,4.499819263E0
1.339757225E1,-1.014924025E0,-3.847498305E0,-1.897959423E0,4.408578450E0
1.340751625E1,-7.894849178E-1,-4.479733175E0,-1.524122368E0,4.797316411E0
1.341745925E1,-1.769349038E0,-5.585380259E0,-1.045974494E0,5.951565449E0
1.342740225E1,-3.066775147E0,-6.425259697E0,-7.719564271E-1,7.161353832E0
1.343734625E1,-3.041921850E0,-6.084861699E0,-5.489751971E-1,6.824969173E0
1.344728925E1,-1.581284164E0,-4.666876820E0,-1.342029548E-1,4.929321383E0
1.345723225E1,-8.350949541E-2,-2.516522334E0,6.529421997E-1,2.601190498E0
1.346717625E1,6.498072150E-1,-4.454192537E-1,2.406712793E0,2.532373234E0
1.347711925E1,1.029050459E0,3.821512109E-1,3.728016300E0,3.886269410E0
1.348706225E1,1.283488248E0,6.831302047E-2,3.810267913E0,4.021212544E0
1.349700625E1,1.137489120E0,-8.050598538E-1,3.508599533E0,3.775218345E0
1.350694925E1,1.405059024E0,-2.063740851E0,2.661980009E0,3.649569115E0
1.351689225E1,1.910817158E0,-3.074815654E0,1.294962970E0,3.844820231E0
1.352683625E1,2.244367628E0,-3.567943509E0,4.917118062E-1,4.243723299E0
1.353677925E1,2.217078965E0,-3.427230849E0,1.986875108E-1,4.086664552E0
1.354672225E1,1.598290936E0,-3.166270784E0,4.983883032E-1,3.581647037E0
1.355666625E1,3.342560828E-2,-2.757449838E0,1.260617595E0,3.032128559E0
1.356660925E1,-1.967660280E0,-2.552648186E0,1.969949173E0,3.777353503E0
1.357655225E1,-3.178406096E0,-2.553890135E0,2.785848010E0,4.938174689E0
1.358649625E1,-3.717450966E0,-2.275881343E0,3.039989052E0,5.314189591E0
1.359643925E1,-3.880330713E0,-1.646512778E0,3.108945851E0,5.237701316E0
1.360638225E1,-3.783531520E0,-8.793498981E-1,4.022639371E0,5.591958021E0
1.361632625E1,-3.420966142E0,-1.995151842E-1,4.504708972E0,5.659966305E0
1.362626925E1,-2.863606330E0,5.424666613E-1,4.588852159E0,5.436182064E0
1.363621225E1,-2.200801340E0,1.274953213E0,4.804838950E0,5.436497914E0
1.364615625E1,-1.462165710E0,2.059324449E0,5.174247909E0,5.757741499E0
1.365609925E1,-7.210786343E-1,2.817220076E0,5.650967892E0,6.355322295E0
1.366604225E1,-2.089837267E-1,3.407258515E0,5.893892221E0,6.811097584E0
1.367598625E1,1.205885902E-1,3.749574984E0,5.982593313E0,7.061535026E0
1.368592925E1,3.235140167E-1,4.086549438E0,5.824928990E0,7.122804600E0
1.369587225E1,3.988447192E-1,4.557439163E0,5.516730439E0,7.166843348E0
1.370581625E1,4.658693057E-1,5.002135116E0,5.305100994E0,7.306331944E0
1.371575925E1,6.126547377E-1,5.504689853E0,5.163194917E0,7.572023372E0
1.372570225E1,9.297999671E-1,5.707806337E0,4.970122780E0,7.625332885E0
1.373564625E1,1.111183666E0,5.529386153E0,4.853068539E0,7.440504997E0
1.374558925E1,1.106516711E0,5.201733915E0,4.741283224E0,7.124758352E0
1.375553225E1,7.306212171E-1,5.033084428E0,4.442054302E0,6.752598955E0
1.376547625E1,2.189110563E-1,4.941620527E0,3.850627735E0,6.268561991E0
1.377541925E1,-9.163507864E-2,4.800968678E0,3.156189015E0,5.746235840E0
1.378536225E1,-6.093142234E-2,4.615252338E0,2.498978932E0,5.248729607E0
1.379530625E1,1.763777518E-1,4.514091999E0,1.808474804E0,4.866078175E0
1.380524925E1,4.352115501E-1,4.410797426E0,9.418794376E-1,4.531189678E0
1.381519225E1,6.183159388E-1,4.043756005E0,-6.982496426E-1,4.149919251E0
1.382513625E1,6.702740778E-1,3.131158839E0,-3.172562681E0,4.507613224E0
1.383507925E1,5.038012900E-1,1.481702573E0,-6.345244060E0,6.535394436E0
1.384502225E1,-6.499903791E-2,-1.327573476E0,-1.026167870E1,1.034740189E1
1.385496625E1,-1.209327427E0,-5.243394742E0,-1.370574017E1,1.472423088E1
1.386490925E1,-2.008488317E0,-9.307248797E0,-1.268436375E1,1.586039057E1
1.387485225E1,-1.264067160E0,-1.158840725E1,-5.998589541E0,1.311000095E1
1.388479625E1,-9.212332115E-2,-1.035442723E1,-2.092669365E0,1.056418076E1
1.389473925E1,1.478633077E0,-7.365777318E0,-3.051663603E0,8.108864411E0
1.390468325E1,1.885655127E0,-2.938097811E0,-4.657804865E0,5.820932930E0
1.391462625E1,1.008637756E0,2.054522130E0,-4.583254035E0,5.122951186E0
1.392456925E1,9.136279573E-1,5.430129082E0,-2.623188411E0,6.099355321E0
1.393451325E1,2.141638042E0,5.468274563E0,1.119843539E0,5.978519027E0
1.394445625E1,2.739766104E0,2.450949903E0,5.156976988E0,6.333078665E0
1.395439925E1,2.101153091E-1,-1.273789617E0,5.659382620E0,5.804765290E0
1.396434325E1,-1.649907379E0,-7.101359210E0,2.787678773E0,7.805296274E0
1.397428625E1,-7.190231918E-1,-1.488447453E1,-6.896724204E0,1.642039528E1
1.398422925E1,-2.764254243E0,-1.847806685E1,-1.642899783E1,2.487955035E1
1.399417325E1,-5.003708017E0,-1.176129071E1,-9.350779563E-1,1.281559299E1
1.400411625E1,-1.143236641E-1,3.160598400E0,2.233519903E1,2.255800452E1
1.401405925E1,7.303591011E0,1.363601797E1,2.329458678E1,2.796285395E1
1.402400325E1,1.532495347E1,1.515361836E1,4.718886049E0,2.206250742E1
1.403394625E1,1.565092990E1,1.260626950E1,-1.410349585E1,2.455154237E1
1.404388925E1,3.844244914E0,6.301968817E0,-2.103884325E0,7.675894682E0
1.405383325E1,-5.319254179E0,-2.286703954E0,1.912364857E1,1.998092627E1
1.406377625E1,-7.406941132E0,-9.473431928E0,1.626201188E1,2.022527428E1
1.407371925E1,-6.137490733E0,-1.304550299E1,2.553978428E0,1.464161011E1
1.408366325E1,-5.719505446E0,-1.202507732E1,-3.753620088E0,1.383491564E1
1.409360625E1,-4.016830747E0,-8.549083613E0,3.115875971E-1,9.450864865E0
1.410354925E1,-5.206902415E-1,-4.969902924E0,4.269554131E0,6.572681788E0
1.411349325E1,1.637263360E0,-1.176786649E0,5.004082239E0,5.395025225E0
1.412343625E1,2.904351483E0,1.926028982E0,2.657323579E0,4.382489450E0
1.413337925E1,3.649278279E0,3.693213673E0,7.970848364E-1,5.252847173E0
1.414332325E1,3.528513103E0,4.648372722E0,1.155810347E0,5.949258041E0
1.415326625E1,2.574328785E0,4.773966821E0,2.309406646E0,5.895022218E0
1.416320925E1,1.223539012E0,3.912167341E0,3.050390372E0,5.109499235E0
1.417315325E1,-5.703549564E-2,2.282365320E0,2.864810565E0,3.663275048E0
1.418309625E1,-1.178892816E0,6.757428324E-1,2.159368554E0,2.551330868E0
1.419303925E1,-2.091608388E0,-4.693606782E-1,1.718588189E0,2.747484387E0
1.420298325E1,-2.635819859E0,-1.587490983E0,1.401950352E0,3.381292466E0
1.421292625E1,-2.863464243E0,-1.811595463E0,1.024549419E0,3.539916257E0
1.422286879E1,-2.447159446E0,-1.386998144E0,4.765012980E-1,2.852964544E0
1.423281279E1,-1.738220800E0,-2.993365109E-1,2.311264014E-1,1.778885413E0
1.424275579E1,-1.268623310E0,1.346847653E0,-3.322241753E-3,1.850247211E0
1.425269879E1,-5.045223613E-1,2.843278193E0,-6.628543266E-1,2.962794214E0
1.426264279E1,3.399237889E-1,3.716765673E0,-1.117222817E0,3.895905809E0
1.427258579E1,7.904921007E-1,3.946743096E0,-1.247704604E0,4.214074703E0
1.428252879E1,5.958742520E-1,3.584733204E0,-1.046487880E0,3.781602194E0
1.429247279E1,7.609361798E-2,2.855928644E0,-5.165699279E-1,2.903267667E0
1.430241579E1,-8.252342827E-1,2.138031480E0,-2.616336644E-1,2.306651773E0
1.431235879E1,-1.648476273E0,1.470858327E0,-4.746968472E-1,2.259698063E0
1.432230279E1,-2.187408877E0,1.233199416E0,-7.366398293E-1,2.616902106E0
1.433224579E1,-2.384829881E0,1.377005253E0,-8.124788010E-1,2.871180738E0
1.434218879E1,-2.021994947E0,1.599566068E0,-1.051102429E0,2.784221882E0
1.435213279E1,-1.075619293E0,1.543023493E0,-1.671090964E0,2.516033261E0
1.436207579E1,-1.490446499E-1,7.675499654E-1,-2.617618938E0,2.731899735E0
1.437201879E1,1.184949946E-1,-7.211131328E-1,-3.474489800E0,3.550510468E0
1.438196279E1,-5.528929047E-1,-2.109935609E0,-4.531153589E0,5.028804201E0
1.439190579E1,-1.663311828E0,-2.307304280E0,-4.928344424E0,5.690240596E0
1.440184879E1,-2.218673062E0,-1.109100450E0,-4.339822168E0,4.998666864E0
1.441179279E1,-1.875227787E0,5.706590116E-1,-3.154175819E0,3.713617651E0
1.442173579E1,-1.727879269E0,1.365548218E0,-1.962944647E0,2.950159384E0
1.443167879E1,-2.059742817E0,6.776817691E-1,-1.405125098E0,2.583828476E0
1.444162279E1,-2.753897947E0,-8.094891196E-1,-1.202868154E0,3.112252935E0
1.445156579E1,-3.414031929E0,-2.153250028E0,-1.021575964E0,4.163618276E0
1.446150879E1,-3.119976916E0,-3.086288475E0,-1.324765643E0,4.584150578E0
1.447145279E1,-2.310087701E0,-3.645383449E0,-2.037654229E0,4.772563298E0
1.448139579E1,-1.765729465E0,-3.859591516E0,-2.674931007E0,5.016921677E0
1.449133879E1,-1.457296148E0,-4.107269046E0,-3.002050855E0,5.292039344E0
1.450128279E1,-1.851449208E0,-4.437540252E0,-2.848971627E0,5.588941491E0
1.451122579E1,-2.760470510E0,-4.869161831E0,-2.455345840E0,6.112091095E0
1.452116879E1,-2.842292937E0,-5.192308204E0,-2.464490885E0,6.411895893E0
1.453111279E1,-1.660949846E0,-5.520181466E0,-2.395030202E0,6.242381555E0
1.454105579E1,-4.703781668E-1,-6.463400500E0,-2.084106849E0,6.807371226E0
1.455099879E1,-5.115893427E-1,-7.370956197E0,-2.196085707E0,7.708145779E0
1.456094279E1,-5.648755306E-1,-7.373336599E0,-2.269985595E0,7.735503317E0
1.457088579E1,3.450950664E-1,-6.328460212E0,-1.996958047E0,6.645023754E0
1.458082879E1,1.505536408E0,-4.911683367E0,-1.327598619E0,5.306014651E0
1.459077279E1,2.307819712E0,-3.715148917E0,-2.253692694E-1,4.379401170E0
1.460071579E1,2.545742917E0,-2.350532745E0,1.308977576E0,3.703948364E0
1.461065879E1,2.513357821E0,-1.263143592E0,3.941955396E0,4.842676080E0
1.462060279E1,2.299406299E0,-1.160950634E0,5.403737090E0,5.986271815E0
1.463054579E1,2.854977887E0,-1.793726372E0,3.666083761E0,4.980815513E0
1.464048879E1,3.613251244E0,-2.929187824E0,1.128429444E0,4.786342954E0
1.465043279E1,3.887271650E0,-4.307434441E0,-3.099525695E-1,5.810416761E0
1.466037579E1,3.551395889E0,-4.924488770E0,2.562027705E-1,6.076894130E0
1.467031879E1,3.370450000E0,-4.678222173E0,1.134350481E0,5.876431478E0
1.468026279E1,2.731848389E0,-4.121739736E0,8.669991168E-1,5.020300941E0
1.469020579E1,1.280134723E0,-3.655896742E0,6.441982734E-1,3.926743857E0
1.470014879E1,-7.817157224E-1,-3.344134898E0,1.038523972E0,3.587875378E0
1.471009279E1,-2.031805990E0,-3.108432466E0,1.622112347E0,4.052386512E0
1.472003579E1,-2.238353767E0,-2.302507809E0,2.016789171E0,3.791992663E0
1.472997879E1,-3.790836154E0,-1.617977196E0,2.537630782E0,4.840233356E0
1.473992279E1,-3.573063916E0,-1.493437350E0,3.205627808E0,5.027244823E0
1.474986579E1,-2.722832567E0,-1.284557850E0,3.653361682E0,4.734021297E0
1.475980879E1,-1.721797580E0,-7.753747094E-1,4.084727153E0,4.500087639E0
1.476975279E1,-9.511059053E-1,9.829929650E-2,4.637292833E0,4.734844244E0
1.477969579E1,-5.006956145E-1,1.260272024E0,5.192620445E0,5.366776384E0
1.478963879E1,-3.162425655E-1,2.686847048E0,5.705939906E0,6.314816436E0
1.479958279E1,-3.690878002E-1,3.958856188E0,6.095168002E0,7.277351241E0
1.480952579E1,-4.115887257E-1,4.937323993E0,6.254906917E0,7.979375541E0
1.481946879E1,-4.831456353E-1,5.759989228E0,6.334663523E0,8.575480602E0
1.482941279E1,-3.290504529E-1,6.539289173E0,6.493430046E0,9.221453836E0
1.483935579E1,-6.054601774E-2,7.176250348E0,6.821674021E0,9.901387344E0
1.484929879E1,-7.444821149E-3,7.500958512E0,6.920373268E0,1.020568470E1
1.485924279E1,-1.887297025E-1,7.479834276E0,6.834893991E0,1.013406708E1
1.486918579E1,-4.628693917E-1,7.244328895E0,6.628236433E0,9.829957652E0
1.487912879E1,-7.794681989E-1,6.781567385E0,6.151942127E0,9.189320910E0
1.488907279E1,-1.181553445E0,6.186050690E0,5.456905822E0,8.333133434E0
1.489901579E1,-1.622529692E0,5.608345783E0,4.573705532E0,7.416530679E0
1.490895879E1,-1.944781879E0,5.182857934E0,3.558083934E0,6.580589199E0
1.491890279E1,-1.963195931E0,4.751048074E0,2.411123348E0,5.678037678E0
1.492884579E1,-1.725023781E0,4.353754329E0,1.127321543E0,4.816818210E0
1.493878879E1,-1.181177323E0,3.993178759E0,-4.131467164E-1,4.184656101E0
1.494873279E1,-2.325056865E-1,3.347464303E0,-2.826004641E0,4.387012467E0
1.495867579E1,9.619407959E-1,1.989204054E0,-6.564052132E0,6.925968759E0
1.496861879E1,1.991980020E0,-1.872272605E-1,-1.063616947E1,1.082271405E1
1.497856279E1,2.475556741E0,-3.224299722E0,-1.236708681E1,1.301803848E1
1.498850579E1,1.200907436E0,-6.701322536E0,-9.541256121E0,1.172115484E1
1.499844879E1,-1.196632976E0,-9.753417079E0,-5.244716213E0,1.113858713E1
1.500839279E1,-1.778249377E0,-1.141403276E1,-3.332293702E0,1.202274910E1
1.501833579E1,-1.896808983E-1,-1.046773809E1,-4.259902425E0,1.130293272E1
1.502827879E1,2.688366739E0,-7.398066813E0,-5.085367307E0,9.371214913E0
1.503822279E1,4.269687740E0,-2.816812525E0,-4.571021075E0,6.859948970E0
1.504816579E1,3.534885106E0,2.508545562E0,-3.283397530E0,5.437730491E0
1.505810879E1,2.975616471E0,6.386263447E0,-2.080594865E0,7.346259537E0
1.506805279E1,2.969340654E0,7.472471462E0,-1.048812148E0,8.108934616E0
1.507799579E1,3.145956388E0,4.541391479E0,4.915532005E-1,5.546431529E0
1.508793879E1,2.836700660E0,-7.646602714E-1,-6.835804403E-1,3.016431366E0
1.509788279E1,1.003209275E0,-6.521717706E0,-6.536456198E0,9.287867909E0
1.510782579E1,-1.734684989E0,-1.365471737E1,-1.337653491E1,1.919354383E1
1.511776879E1,-5.838843609E0,-1.749754375E1,-6.361487625E0,1.951216689E1
1.512771279E1,-9.274651154E0,-9.047308486E0,1.381681856E1,1.894142075E1
1.513765579E1,-5.045992157E0,5.398724272E0,2.383675933E1,2.495594831E1
1.514759879E1,4.616020370E0,1.309452137E1,1.749196550E1,2.233255451E1
1.515754279E1,1.204762301E1,1.225321696E1,4.726374578E-1,1.719040233E1
1.516748579E1,1.279456856E1,7.156125401E0,-8.522305119E0,1.695702804E1
1.517742879E1,6.924519528E0,3.088294655E-1,3.929476268E0,7.967755649E0
1.518737279E1,9.347091432E-1,-5.807396114E0,1.368759042E1,1.489797510E1
1.519731579E1,-2.559857218E0,-9.181225512E0,8.675427909E0,1.288839867E1
1.520725879E1,-4.349807751E0,-9.525551670E0,1.774382613E0,1.062098845E1
1.521720279E1,-4.440992448E0,-7.579724600E0,8.249228454E-1,8.823555782E0
1.522714575E1,-4.032084963E0,-4.869563534E0,2.693996438E0,6.872261271E0
1.523708875E1,-3.164232445E0,-2.624480061E0,4.258090957E0,5.918749966E0
1.524703275E1,-1.456539811E0,-1.033831581E0,3.950045604E0,4.335109714E0
1.525697575E1,-1.069017202E-1,9.080258131E-2,3.733943038E0,3.736576468E0
1.526691875E1,7.666980261E-1,6.712638652E-1,3.312548239E0,3.465746222E0
1.527686275E1,1.150972653E0,1.013605478E0,2.768409274E0,3.164841864E0
1.528680575E1,7.744180318E-1,1.331124490E0,2.556978342E0,2.984921094E0
1.529674875E1,2.813920639E-1,1.282203176E0,2.314307490E0,2.660685182E0
1.530669275E1,1.263472205E-1,7.887086999E-1,1.996410162E0,2.150274069E0
1.531663575E1,2.802178699E-1,2.069423175E-1,1.829586469E0,1.862453710E0
1.532657875E1,2.717040315E-1,-6.648868918E-3,1.625708385E0,1.648270318E0
1.533652275E1,4.956903979E-3,-2.790174365E-2,1.230875440E0,1.231201619E0
1.534646575E1,-5.436475065E-1,3.120454341E-1,8.292334127E-1,1.039496521E0
1.535640875E1,-1.058567058E0,8.776167834E-1,6.137763798E-1,1.505820998E0
1.536635275E1,-1.176327350E0,1.209603562E0,5.045807970E-1,1.761104367E0
1.537629575E1,-9.135337441E-1,1.399354481E0,1.980162504E-1,1.682839059E0
1.538623875E1,-6.047483519E-1,1.714588401E0,-3.017980425E-1,1.842991051E0
1.539618275E1,-4.964055855E-1,2.171212090E0,-5.716330846E-1,2.299422716E0
1.540612575E1,-4.879057074E-1,2.614377242E0,-5.355757177E-1,2.712906502E0
1.541606875E1,-5.106758615E-1,2.898985786E0,-2.706957523E-1,2.956042052E0
1.542601275E1,-5.782370031E-1,3.026976659E0,2.462999260E-1,3.091538351E0
1.543595575E1,-7.106697133E-1,2.871368802E0,7.723633933E-1,3.057180964E0
1.544589875E1,-1.022420375E0,2.491658803E0,8.562159741E-1,2.826094975E0
1.545584275E1,-1.418035165E0,2.218375731E0,3.265634859E-1,2.653046989E0
1.546578575E1,-1.600261302E0,2.078798600E0,-3.506797421E-1,2.646736885E0
1.547572875E1,-1.265179300E0,1.851896812E0,-1.244093948E0,2.564755391E0
1.548567275E1,-6.149739627E-1,1.157876753E0,-2.051123729E0,2.434333605E0
1.549561575E1,-3.466756419E-1,-6.940001786E-2,-2.440240728E0,2.465720011E0
1.550555875E1,-8.087531014E-1,-1.268472744E0,-2.933440504E0,3.296691959E0
1.551550175E1,-1.415383745E0,-1.884736530E0,-3.762491484E0,4.439806876E0
1.552544575E1,-1.652005652E0,-1.533011305E0,-4.158001828E0,4.729505845E0
1.553538875E1,-1.240414734E0,-6.374342144E-1,-3.136178674E0,3.432283170E0
1.554533175E1,-2.994807909E-1,9.608729482E-3,-1.990280088E0,2.012708598E0
1.555527575E1,7.933312163E-1,3.333754921E-1,-2.509637822E0,2.653072866E0
1.556521875E1,1.116559012E0,4.492170203E-1,-3.566603912E0,3.764194924E0
1.557516175E1,-4.377878333E-1,5.657087588E-1,-3.110984191E0,3.192163408E0
1.558510575E1,-3.208165792E0,4.284371853E-2,-1.414194714E0,3.506295769E0
1.559504875E1,-5.050954689E0,-1.272873359E0,-2.868579680E-1,5.216765027E0
1.560499175E1,-4.991992536E0,-2.784711311E0,-6.345396964E-1,5.751282221E0
1.561493575E1,-3.820560767E0,-3.430808761E0,-1.531529767E0,5.358424839E0
1.562487875E1,-2.662774353E0,-3.452356335E0,-1.810465196E0,4.720902006E0
1.563482175E1,-1.634119312E0,-3.649988131E0,-2.204329550E0,4.566380191E0
1.564476575E1,-5.038013631E-1,-3.831336601E0,-2.967428614E0,4.872226241E0
1.565470875E1,2.557672991E-1,-3.540104331E0,-3.166453802E0,4.756488754E0
1.566465175E1,2.737547962E-1,-2.860224593E0,-3.191543620E0,4.294389024E0
1.567459575E1,-5.378179787E-1,-2.405922834E0,-3.184352714E0,4.027134846E0
1.568453875E1,-2.082674427E0,-2.752451638E0,-3.280491464E0,4.761842819E0
1.569448175E1,-3.276339941E0,-3.644226869E0,-3.715467006E0,6.149755114E0
1.570442575E1,-3.207557389E0,-4.718034695E0,-3.808598533E0,6.859569853E0
1.571436875E1,-2.440850008E0,-5.903376989E0,-2.648710338E0,6.915437448E0
1.572431175E1,-2.107980592E0,-6.617765239E0,-1.241674955E0,7.055505342E0
1.573425575E1,-1.950839303E0,-6.557299767E0,-7.961171222E-1,6.887507292E0
1.574419875E1,-1.243777467E0,-6.061308530E0,-1.092743887E0,6.283353618E0
1.575414175E1,-1.646609549E-1,-4.853207703E0,-1.152462743E0,4.990882548E0
1.576408575E1,5.527598074E-1,-3.159920708E0,-2.378577161E-1,3.216709278E0
1.577402875E1,9.246270816E-1,-1.807701218E0,1.945535878E0,2.812086198E0
1.578397175E1,9.995439474E-1,-1.377994017E0,4.804798604E0,5.097454781E0
1.579391575E1,1.008377336E0,-1.827765353E0,5.442131077E0,5.828751298E0
1.580385875E1,1.455299909E0,-2.624602268E0,3.813044171E0,4.852395361E0
1.581380175E1,2.515269275E0,-3.908855478E0,1.449382234E0,4.868925912E0
1.582374575E1,3.171186538E0,-5.062229290E0,8.810569927E-2,5.974140278E0
1.583368875E1,2.986060767E0,-5.340988280E0,6.681494920E-1,6.155415376E0
1.584363175E1,2.787097560E0,-4.998468912E0,1.144430788E0,5.836293867E0
1.585357575E1,2.329073902E0,-4.217590218E0,7.162096578E-1,4.870894042E0
1.586351875E1,9.730183460E-1,-3.348740165E0,9.032726115E-1,3.602322418E0
1.587346175E1,-9.895876010E-1,-2.861465957E0,1.485751185E0,3.372644011E0
1.588340575E1,-2.295026735E0,-2.523573491E0,2.300023035E0,4.114082746E0
1.589334875E1,-3.059166166E0,-2.029321216E0,2.392044468E0,4.381611457E0
1.590329175E1,-3.174584648E0,-1.572614497E0,2.653205093E0,4.426127123E0
1.591323575E1,-2.763581813E0,-1.289933195E0,3.258467926E0,4.463062324E0
1.592317875E1,-2.491628982E0,-7.509432882E-1,3.370012336E0,4.257829723E0
1.593312175E1,-2.265257537E0,1.612550980E-1,3.565010546E0,4.226901360E0
1.594306575E1,-1.862816634E0,1.302300056E0,4.264499213E0,4.832393277E0
1.595300875E1,-1.212141984E0,2.508860142E0,5.046120796E0,5.764286815E0
1.596295175E1,-5.985595858E-1,3.655492115E0,5.713948252E0,6.809559517E0
1.597289575E1,-2.349284072E-1,4.529150333E0,6.178508366E0,7.664356446E0
1.598283875E1,2.473898470E-2,5.038302484E0,6.537149093E0,8.253449109E0
1.599278175E1,2.102744995E-1,5.497394282E0,6.569611664E0,8.568859707E0
1.600272575E1,5.071005084E-1,6.099471552E0,6.555781830E0,8.968778041E0
1.601266875E1,8.088963582E-1,6.523392348E0,6.375637887E0,9.157386063E0
1.602261175E1,1.092626943E0,6.565962417E0,6.152701680E0,9.064294460E0
1.603255475E1,1.186685692E0,6.500309880E0,5.895693748E0,8.855588983E0
1.604249875E1,1.108786016E0,6.317458676E0,5.552841089E0,8.483733536E0
1.605244175E1,7.849778840E-1,5.951301354E0,5.101304478E0,7.877657358E0
1.606238475E1,1.851637781E-1,5.381606548E0,4.531645340E0,7.037882078E0
1.607232875E1,-5.054789293E-1,4.782599065E0,3.768987740E0,6.110158047E0
1.608227175E1,-9.904259455E-1,4.229347799E0,2.881594412E0,5.212668484E0
1.609221475E1,-1.164854528E0,3.781306654E0,2.006443400E0,4.436325191E0
1.610215875E1,-1.050946966E0,3.468564817E0,1.139341664E0,3.799148700E0
1.611210175E1,-7.297162143E-1,3.369325873E0,1.634285080E-1,3.451311557E0
1.612204475E1,-1.896105856E-1,3.301143245E0,-9.626084018E-1,3.443851599E0
1.613198875E1,3.393252533E-1,3.033043145E0,-2.480807540E0,3.933052046E0
1.614193175E1,5.774815428E-1,2.248336279E0,-4.705692392E0,5.247098422E0
1.615187475E1,4.263226859E-1,8.714561570E-1,-7.468754387E0,7.531499118E0
1.616181875E1,-1.975037420E-1,-1.237997056E0,-9.958802283E0,1.003739943E1
1.617176175E1,-1.733861409E0,-4.193010278E0,-1.131906930E1,1.219462752E1
1.618170475E1,-3.402233710E0,-7.414212729E0,-1.011290448E1,1.299294353E1
1.619164875E1,-3.775322906E0,-9.429263815E0,-6.968233312E0,1.231748167E1
1.620159175E1,-2.695874272E0,-8.921160656E0,-4.942743777E0,1.054919720E1
1.621153475E1,-4.285821962E-1,-6.725170405E0,-4.845381204E0,8.299958957E0
1.622147812E1,1.498644295E0,-3.689845676E0,-5.147586359E0,6.508343965E0
1.623142113E1,1.838928273E0,-1.576859576E-1,-4.820945690E0,5.162173903E0
1.624136412E1,1.960245426E0,2.195371615E0,-4.056836811E0,5.011999957E0
1.625130812E1,2.934963996E0,1.852607834E0,-1.043682386E0,3.624285083E0
1.626125113E1,3.765879945E0,-4.023071480E-1,1.535996309E0,4.086928855E0
1.627119412E1,2.601701355E0,-3.123783161E0,1.472900759E0,4.323922736E0
1.628113812E1,9.868451107E-1,-7.203594267E0,4.361566794E-1,7.283945791E0
1.629108113E1,5.503074852E-1,-1.235199281E1,-5.327476534E0,1.346315605E1
1.630102412E1,-2.059734339E0,-1.370343871E1,-1.059997755E1,1.744666908E1
1.631096813E1,-4.552088376E0,-6.410985475E0,4.579040532E0,9.098893093E0
1.632091112E1,-1.133671692E0,8.313357791E0,2.536627868E1,2.671788209E1
1.633085412E1,4.934819046E0,1.634108144E1,2.303489089E1,2.867036065E1
1.634079813E1,1.216605252E1,1.435784973E1,4.405634335E0,1.932796670E1
1.635074112E1,1.278521067E1,9.573202969E0,-1.499990792E1,2.191129993E1
1.636068412E1,2.737343017E0,2.576838702E0,-2.305850077E0,4.410225512E0
1.637062813E1,-3.879920239E0,-5.161218558E0,1.939793211E1,2.044435687E1
1.638057112E1,-5.260146430E0,-1.022368349E1,1.405929558E1,1.816195575E1
1.639051412E1,-4.918610564E0,-1.211315276E1,1.443348346E0,1.315311575E1
1.640045812E1,-4.761171651E0,-1.002432618E1,-2.309761280E0,1.133538125E1
1.641040112E1,-3.089704126E0,-6.228319042E0,1.053559502E0,7.031942641E0
1.642034413E1,-4.076687524E-1,-3.233970432E0,4.316485346E0,5.408955935E0
1.643028812E1,1.161771072E0,-4.886874801E-1,5.398971609E0,5.544134009E0
1.644023112E1,1.934485517E0,1.695014847E0,3.675870831E0,4.486349955E0
1.645017413E1,2.106635732E0,3.062791439E0,1.754479276E0,4.110572106E0
1.646011812E1,1.746924381E0,3.732934978E0,1.296948100E0,4.320720162E0
1.647006113E1,1.034565626E0,3.631813231E0,1.696946475E0,4.140050811E0
