"Time (s)","Linear Acceleration x (m/s^2)","Linear Acceleration y (m/s^2)","Linear Acceleration z (m/s^2)","Absolute acceleration (m/s^2)"
3.675254167E-2,-1.283631943E0,2.020813517E0,-2.189454818E-1,2.404024825E0
4.669454158E-2,-1.298539712E0,2.089833466E0,4.019896442E-1,2.493031282E0
5.663654162E-2,-1.127043216E0,2.051727161E0,8.881756854E-1,2.503730577E0
6.657854165E-2,-1.091280183E0,1.982829273E0,1.453919528E0,2.690053226E0
7.651954168E-2,-1.174567630E0,1.958884487E0,1.859480066E0,2.945251036E0
8.646154159E-2,-1.188296308E0,1.973029924E0,2.140516546E0,3.144313325E0
9.640354163E-2,-1.193121138E0,2.057211996E0,2.140009008E0,3.199265197E0
1.063455417E-1,-1.160649211E0,2.190752169E0,1.949868665E0,3.154122614E0
1.162875416E-1,-9.517512918E-1,2.265591998E0,1.776796929E0,3.032448672E0
1.262295416E-1,-5.883094168E-1,2.218979456E0,1.917639982E0,2.991207264E0
1.361715416E-1,-2.959898570E-1,2.210601566E0,2.116102667E0,3.074452760E0
1.461135417E-1,-5.960008442E-2,2.172780021E0,2.450337115E0,3.275465946E0
1.560555416E-1,5.800437927E-3,1.933507863E0,2.727051333E0,3.342947094E0
1.659965416E-1,8.869319826E-2,1.351596762E0,2.726520406E0,3.044436535E0
1.759385417E-1,9.903429151E-2,4.080365422E-1,3.328623989E0,3.355002127E0
1.858805417E-1,-6.909260049E-2,-2.355662654E-1,3.920653405E0,3.928331500E0
1.958225416E-1,-9.809769912E-1,-2.085235508E-1,4.913159789E0,5.014472758E0
2.057645416E-1,-1.926374991E0,-5.736904275E-2,6.082460248E0,6.380480740E0
2.157065417E-1,-2.666098788E0,2.266591287E-1,6.467746736E0,6.999371754E0
2.256485416E-1,-2.939378352E0,7.110114100E-1,6.987508659E0,7.613853136E0
2.355905416E-1,-2.968299850E0,1.034859230E0,6.755791104E0,7.451338877E0
2.455325417E-1,-2.546304834E0,7.867296367E-1,6.161605820E0,6.713270299E0
2.554735417E-1,-1.138675959E0,-2.679325774E-1,5.945632478E0,6.059613549E0
2.654155416E-1,5.439552163E-1,-1.294797055E0,4.830235747E0,5.030264810E0
2.753575416E-1,1.884893820E0,-2.080928595E0,3.206333567E0,4.261884967E0
2.852995417E-1,2.569535237E0,-3.208270749E0,1.959454005E0,4.553567012E0
2.952415416E-1,2.546246947E0,-4.365278314E0,1.878063687E0,5.391303320E0
3.051835416E-1,1.622286886E0,-4.806966752E0,4.586234361E-1,5.094023906E0
3.151255416E-1,7.567611216E-1,-5.055793260E0,-2.034412386E0,5.502051130E0
3.250675417E-1,3.383377317E-1,-5.944499872E0,-2.462406937E0,6.443213412E0
3.350080416E-1,2.938401282E-1,-6.510125016E0,-2.211173131E0,6.881668138E0
3.449500416E-1,-8.162508398E-2,-6.006458724E0,-2.682542328E0,6.578772104E0
3.548920417E-1,-1.414870798E0,-3.649327396E0,-3.494467397E0,5.246975529E0
3.648340417E-1,-2.653857642E0,-1.340050265E0,-3.788803369E0,4.815986510E0
3.747760416E-1,-1.951016327E0,-1.285724954E0,-3.470948727E0,4.184141301E0
3.847180416E-1,-8.375586784E-1,-1.284534607E0,-3.142434025E0,3.496630563E0
3.946600417E-1,-1.206676738E-1,-8.645820241E-1,-3.028999211E0,3.152284724E0
4.046020416E-1,5.814380613E-1,-4.476537672E-1,-3.339248380E0,3.418924372E0
4.145430416E-1,1.230705578E0,-1.386689119E-1,-3.873664010E0,4.066833922E0
4.244850416E-1,1.790680850E0,2.723228131E-1,-4.160233710E0,4.537426820E0
4.344270417E-1,2.221524603E0,6.402784462E-1,-4.305948663E0,4.887363496E0
4.443690416E-1,2.289125579E0,7.008314806E-1,-4.451223906E0,5.054172033E0
4.543110416E-1,2.055064167E0,3.429473841E-1,-4.820739284E0,5.251707235E0
4.642530417E-1,1.594093951E0,6.830161840E-2,-5.314179965E0,5.548541190E0
4.741950416E-1,1.258409394E0,3.960094044E-1,-5.290705733E0,5.452704357E0
4.841370416E-1,1.206226064E0,5.746123141E-1,-4.421789022E0,4.619240066E0
4.940790416E-1,1.074536681E0,7.167002392E-1,-3.504000698E0,3.734475760E0
5.040200417E-1,7.493221477E-1,8.376767921E-1,-2.938907066E0,3.146483884E0
5.139620416E-1,3.896192747E-1,7.569211891E-1,-2.617321315E0,2.752290633E0
5.239040416E-1,2.064447194E-1,5.398836538E-1,-2.551115631E0,2.615776126E0
5.338460417E-1,2.285122575E-1,2.147103435E-1,-2.362330672E0,2.383049430E0
5.437880417E-1,4.016345720E-1,-2.052746916E-1,-1.736671581E0,1.794289889E0
5.537300416E-1,5.741027293E-1,-4.790398666E-1,-9.663313240E-1,1.221830334E0
5.636720416E-1,8.374661462E-1,-2.211326328E-1,-3.127699041E-1,9.209094419E-1
5.736140417E-1,5.781728299E-1,1.942842650E-1,-2.142484134E-1,6.464770526E-1
5.835550416E-1,5.215335562E-1,4.521985155E-1,1.569837070E-1,7.079015694E-1
5.934970416E-1,6.083160306E-1,8.273003232E-1,5.007122791E-1,1.142447813E0
6.034390416E-1,7.752143495E-1,1.114421124E0,6.752388024E-1,1.516192326E0
6.133810417E-1,1.025621506E0,1.177714309E0,7.046321708E-1,1.713305858E0
6.233230416E-1,1.277456406E0,9.818743926E-1,6.404449457E-1,1.733822921E0
6.332650416E-1,1.505009574E0,6.428765103E-1,6.807995045E-1,1.772521366E0
6.432070417E-1,1.518637972E0,3.835323232E-1,7.887858832E-1,1.753722185E0
6.531490416E-1,1.259302848E0,2.697645101E-1,8.435339481E-1,1.539534370E0
6.630910416E-1,9.996904202E-1,1.116584301E-1,8.381890082E-1,1.309354557E0
6.730320416E-1,7.591258818E-1,1.691073239E-2,8.199573898E-1,1.117536665E0
6.829740417E-1,6.646158734E-1,-1.027963901E-1,9.403585768E-1,1.156094983E0
6.929160416E-1,7.487085555E-1,-2.541851887E-1,1.334250997E0,1.550935309E0
7.028580416E-1,7.012753574E-1,-3.436674687E-1,1.599873047E0,1.780305654E0
7.128000417E-1,7.340348947E-1,-1.928715777E-1,1.764899599E0,1.921165601E0
7.227420416E-1,6.036571153E-1,-1.853272077E-1,2.012156714E0,2.108915060E0
7.326840416E-1,4.485419592E-1,-3.016537625E-1,2.494446756E0,2.552341963E0
7.426260416E-1,1.190033370E-1,-1.845556676E-1,3.134135656E0,3.141819362E0
7.525670417E-1,-2.919668265E-1,-8.117017061E-2,3.428224291E0,3.441591930E0
7.625090416E-1,-3.568040427E-1,-2.250470513E-1,3.511973376E0,3.537218158E0
7.724510416E-1,-3.354524962E-1,-3.045431641E-1,3.490222903E0,3.519507186E0
7.823930416E-1,-3.620303206E-1,-2.543243524E-1,3.478483449E0,3.506507369E0
7.923350417E-1,-3.571320349E-1,-1.272082230E-1,3.500493538E0,3.520962969E0
8.022770416E-1,-2.550706764E-1,-9.147296458E-2,3.412084222E0,3.422827353E0
8.122190416E-1,-1.340492278E-1,-1.212007937E-1,3.344515552E0,3.349394439E0
8.221610417E-1,-5.238812864E-2,-1.568237856E-1,3.100772613E0,3.105177775E0
8.321020416E-1,1.983053952E-2,-1.944333690E-1,2.739294233E0,2.746257541E0
8.420440416E-1,3.234752789E-2,-2.686152399E-1,2.372941614E0,2.388315811E0
8.519860416E-1,6.928380445E-2,-3.004986450E-1,1.884372248E0,1.909439303E0
8.619280417E-1,3.160727039E-2,-2.502894813E-1,1.204555660E0,1.230690125E0
8.718700416E-1,-5.368825704E-2,-1.365903729E-1,5.748456180E-1,5.932847912E-1
8.818120416E-1,-1.472770366E-1,-7.462128907E-2,9.072890639E-2,1.883894815E-1
8.917540417E-1,-2.478811593E-1,-1.129462793E-1,-2.987523741E-1,4.042955753E-1
9.016960416E-1,-3.255772068E-1,-2.061628836E-1,-5.300805044E-1,6.553540977E-1
9.116380416E-1,-3.944993609E-1,-3.325568819E-1,-6.917185950E-1,8.629591185E-1
9.215790416E-1,-4.212281531E-1,-4.765942687E-1,-9.333635527E-1,1.129487838E0
9.315210417E-1,-3.984363643E-1,-5.992708996E-1,-1.195458562E0,1.395348817E0
9.414630416E-1,-3.764785346E-1,-7.025122628E-1,-1.492993546E0,1.692421134E0
9.514050416E-1,-3.891232116E-1,-7.622304609E-1,-1.856007990E0,2.043814524E0
9.613470417E-1,-3.844170801E-1,-7.728402337E-1,-2.163170999E0,2.329027112E0
9.712890417E-1,-3.648702767E-1,-7.778638691E-1,-2.433870771E0,2.581071376E0
9.812310416E-1,-3.081665374E-1,-8.848527128E-1,-2.639849467E0,2.801202625E0
9.911730416E-1,-3.118382965E-1,-9.481011674E-1,-2.735366074E0,2.911763470E0
1.001114042E0,-4.083337270E-1,-9.076033518E-1,-2.706803010E0,2.883966507E0
1.011056042E0,-4.304125209E-1,-8.533104926E-1,-2.594195577E0,2.764641826E0
1.020998042E0,-3.537615171E-1,-8.516077834E-1,-2.556234283E0,2.717483531E0
1.030940042E0,-2.116772465E-1,-8.470732677E-1,-2.518551902E0,2.665603883E0
1.040882042E0,-6.853623793E-2,-7.725084043E-1,-2.465344579E0,2.584451652E0
1.050824042E0,4.888886243E-2,-6.776262206E-1,-2.442797130E0,2.535512815E0
1.060766042E0,2.014482554E-1,-5.027009171E-1,-2.481443133E0,2.539852286E0
1.070708042E0,4.606532970E-1,-2.850710589E-1,-2.406254956E0,2.466481276E0
1.080650042E0,7.563902619E-1,-7.914937288E-2,-2.222199810E0,2.348736436E0
1.090591042E0,1.049376404E0,1.450688356E-1,-2.098486176E0,2.350719046E0
1.100533042E0,1.034356369E0,6.485015318E-1,-2.023136616E0,2.362949238E0
1.110475042E0,1.135792989E0,7.077238861E-1,-2.324620809E0,2.682305113E0
1.120417042E0,1.322174450E0,6.086059794E-1,-2.660681342E0,3.032782834E0
1.130359042E0,1.550948370E0,3.974975207E-1,-2.813256834E0,3.236952137E0
1.140301042E0,1.766002091E0,1.036787349E-1,-2.740119860E0,3.261559369E0
1.150243042E0,1.832887076E0,3.227458388E-2,-2.209776816E0,2.871172279E0
1.160185042E0,1.640065492E0,2.281624478E-1,-1.441495364E0,2.195400146E0
1.170126042E0,1.030415930E0,5.871300334E-1,-5.840304244E-1,1.321956959E0
1.180068042E0,4.273862945E-1,7.530304518E-1,4.492830938E-1,9.754840872E-1
1.190010042E0,4.230095074E-2,6.050508723E-1,1.213175041E0,1.356344207E0
1.199952042E0,-1.917047659E-1,4.212445253E-1,1.681024799E0,1.743571634E0
1.209894042E0,-4.142548368E-1,4.465270087E-1,2.005466330E0,2.095921907E0
1.219836042E0,-6.400486507E-1,6.446581569E-1,2.318965382E0,2.490551517E0
1.229778042E0,-6.681806284E-1,7.948897916E-1,2.616051300E0,2.814611791E0
1.239720042E0,-4.140400247E-1,7.375148651E-1,2.759488762E0,2.886197420E0
1.249662042E0,-7.273936272E-3,6.770473462E-1,2.876300343E0,2.954919573E0
1.259603042E0,3.414759323E-1,7.919924963E-1,3.030857456E0,3.151183086E0
1.269545042E0,5.944593720E-1,1.022970963E0,3.207001319E0,3.418290362E0
1.279487042E0,7.878184614E-1,1.140366096E0,3.490608235E0,3.755720785E0
1.289429042E0,9.701782072E-1,1.065168857E0,3.853836102E0,4.114350878E0
1.299371042E0,1.016011242E0,8.360252461E-1,3.999914167E0,4.210763636E0
1.309313042E0,8.180465198E-1,5.873899421E-1,4.104554769E0,4.226298251E0
1.319255042E0,4.164124594E-1,3.747343102E-1,4.372494655E0,4.408234868E0
1.329197042E0,4.955581047E-2,2.224529341E-1,4.435908878E0,4.441759636E0
1.339138500E0,-2.663810918E-1,-2.551520258E-2,4.175547568E0,4.184113694E0
1.349080500E0,-6.314087317E-1,-3.340143004E-1,3.795780852E0,3.862407904E0
1.359022500E0,-1.111305435E0,-5.567166182E-1,3.120606369E0,3.359035170E0
1.368964500E0,-1.517052061E0,-6.921471959E-1,2.420091223E0,2.938937941E0
1.378906500E0,-1.687175339E0,-7.893706048E-1,1.890743374E0,2.654162219E0
1.388848500E0,-1.610977786E0,-7.879930007E-1,1.238713925E0,2.179585875E0
1.398790500E0,-1.311520531E0,-7.395634371E-1,7.896530253E-1,1.700174132E0
1.408732500E0,-9.363493603E-1,-6.601816374E-1,6.268337971E-1,1.305951962E0
1.418674500E0,-5.930000532E-1,-5.881670371E-1,4.971033776E-1,9.719574551E-1
1.428615500E0,-1.365036879E-1,-6.770222032E-1,4.708768612E-1,8.358931384E-1
1.438557500E0,2.500650213E-1,-7.087801856E-1,4.446450824E-1,8.732760821E-1
1.448499500E0,4.364252859E-1,-7.031615961E-1,2.880642486E-1,8.762900613E-1
1.458441500E0,4.666618227E-1,-7.481544587E-1,4.450374305E-2,8.828867051E-1
1.468383500E0,3.656206937E-1,-7.880891874E-1,-2.194612062E-1,8.960615381E-1
1.478325500E0,1.554696435E-1,-7.481725851E-1,-4.908690763E-1,9.082320613E-1
1.488267500E0,-5.030483879E-2,-7.090544200E-1,-7.682083619E-1,1.046629273E0
1.498209500E0,-1.250708465E-1,-7.264060324E-1,-1.052927418E0,1.285287746E0
1.508150500E0,-1.632112840E-1,-7.745104909E-1,-1.277948157E0,1.503215193E0
1.518092500E0,-2.505279015E-1,-7.546597785E-1,-1.554092272E0,1.745702838E0
1.528034500E0,-3.328433224E-1,-6.932341933E-1,-1.801306118E0,1.958586749E0
1.537976500E0,-3.508584476E-1,-6.401236412E-1,-2.037028431E0,2.163872629E0
1.547918500E0,-3.352830000E-1,-6.482661813E-1,-2.354239880E0,2.464773650E0
1.557860500E0,-3.401516110E-1,-6.282967705E-1,-2.727440173E0,2.819466235E0
1.567802500E0,-2.761244535E-1,-6.676786450E-1,-3.042380564E0,3.126998398E0
1.577744500E0,-2.143776369E-1,-6.616235608E-1,-3.308064594E0,3.380383834E0
1.587685500E0,-2.422725101E-1,-5.580094376E-1,-3.539086915E0,3.590989654E0
1.597627500E0,-3.202305128E-1,-4.541017842E-1,-3.609071655E0,3.651596120E0
1.607569500E0,-4.449144928E-1,-3.387350500E-1,-3.514283611E0,3.558494013E0
1.617511500E0,-5.987958133E-1,-1.232657379E-1,-3.334907992E0,3.390481114E0
1.627453500E0,-7.710159025E-1,1.806769171E-1,-3.016654569E0,3.118864290E0
1.637395500E0,-8.756497800E-1,4.871619415E-1,-2.656484211E0,2.839189613E0
1.647337500E0,-8.636849150E-1,7.765336275E-1,-2.380024347E0,2.648296056E0
1.657279500E0,-7.776270568E-1,1.075148300E0,-1.986362307E0,2.388782728E0
1.667221500E0,-6.651814453E-1,1.377254344E0,-1.626573188E0,2.232719467E0
1.677162500E0,-5.346530271E-1,1.577709761E0,-1.271917924E0,2.095900082E0
1.687104500E0,-3.434445436E-1,1.614126220E0,-8.215875936E-1,1.843465156E0
1.697046500E0,-2.317717879E-1,1.547438141E0,-3.100053406E-1,1.595113247E0
1.706988500E0,-1.117987633E-1,1.421239439E0,1.824413145E-1,1.437256185E0
1.716930500E0,7.114658117E-2,1.319839364E0,5.302828181E-1,1.424162087E0
1.726872500E0,3.029227544E-1,1.273061054E0,7.527418917E-1,1.509657908E0
1.736814500E0,5.516549760E-1,1.158946794E0,9.211510581E-1,1.579873462E0
1.746756500E0,7.771629341E-1,9.706199643E-1,1.117430393E0,1.671746400E0
1.756698500E0,8.950658982E-1,7.898895451E-1,1.433689331E0,1.865618812E0
1.766639500E0,9.081119134E-1,6.216514099E-1,1.940175151E0,2.230559871E0
1.776581500E0,9.121790904E-1,5.142058986E-1,2.453890468E0,2.667968671E0
1.786523500E0,9.658177923E-1,3.650595072E-1,2.966745075E0,3.141281393E0
1.796465500E0,1.044409487E0,1.698142523E-1,3.321406186E0,3.485881110E0
1.806407500E0,1.142576490E0,-1.040044248E-2,3.321738308E0,3.512767370E0
1.816349500E0,1.294908299E0,-2.365242586E-1,3.172719678E0,3.434949983E0
1.826291500E0,1.309396091E0,-3.397360933E-1,2.809066719E0,3.117818880E0
1.836233500E0,1.124104844E0,-1.886656755E-1,2.255304991E0,2.526975868E0
1.846174500E0,9.032230563E-1,3.486694694E-3,1.791688033E0,2.006482009E0
1.856116500E0,7.285962532E-1,9.078971744E-3,1.580962567E0,1.740797968E0
1.866058500E0,5.917537192E-1,-9.580575138E-2,1.544909804E0,1.657135332E0
1.876000500E0,5.706340148E-1,-3.974902117E-1,1.649924043E0,1.790494623E0
1.885942500E0,5.686053233E-1,-7.535087541E-1,1.798520504E0,2.031197543E0
1.895884500E0,3.824450335E-1,-8.828813240E-1,1.553899899E0,1.827662039E0
1.905826500E0,1.426992606E-1,-9.797331423E-1,1.167507117E0,1.530788352E0
1.915768500E0,-9.139241919E-2,-1.129021036E0,7.349493992E-1,1.350256159E0
1.925709500E0,-3.085112308E-1,-1.210122210E0,2.921257246E-1,1.282541376E0
1.935651500E0,-5.148020223E-1,-1.204995663E0,8.716152012E-2,1.313252756E0
1.945593500E0,-6.297430792E-1,-1.202653561E0,2.040771818E-1,1.372807135E0
1.955535500E0,-5.842736685E-1,-1.272123453E0,4.884734720E-1,1.482659817E0
1.965477500E0,-3.371130323E-1,-1.435743165E0,8.699113226E-1,1.712235189E0
1.975419500E0,-9.270585001E-2,-1.528879663E0,1.179834217E0,1.933410504E0
1.985361500E0,5.891552165E-2,-1.579774413E0,1.314618970E0,2.056059646E0
1.995303500E0,1.065656514E-1,-1.588256091E0,1.187771813E0,1.986130793E0
2.005244500E0,4.592682743E-2,-1.555208798E0,7.847799557E-1,1.742602438E0
2.015186500E0,-7.328169197E-2,-1.398102592E0,1.020187104E-1,1.403733907E0
2.025128500E0,-1.903871689E-1,-1.179118518E0,-7.229912585E-1,1.396167653E0
2.035070500E0,-1.617937727E-1,-9.865431020E-1,-1.493167793E0,1.796940337E0
2.045012500E0,2.192764342E-2,-8.227865651E-1,-2.248266698E0,2.394193329E0
2.054954500E0,2.105869601E-1,-7.550559273E-1,-2.888779471E0,2.993242916E0
2.064896500E0,2.862912631E-1,-7.073794851E-1,-3.215846402E0,3.305149997E0
2.074838500E0,2.961307018E-1,-7.553561819E-1,-3.272536327E0,3.371609462E0
2.084779500E0,1.760914575E-1,-9.208929035E-1,-3.245655507E0,3.378362268E0
2.094721500E0,-1.136939920E-1,-1.086008041E0,-3.058223010E0,3.247317010E0
2.104663500E0,-4.860017078E-1,-1.180202007E0,-2.629416280E0,2.922824732E0
2.114605500E0,-7.736418139E-1,-1.259631754E0,-2.184679981E0,2.637805989E0
2.124547500E0,-8.780392447E-1,-1.306803874E0,-1.841596357E0,2.422842633E0
2.134489500E0,-8.271213254E-1,-1.259137664E0,-1.524883676E0,2.143554891E0
2.144431500E0,-6.310616995E-1,-1.138032765E0,-1.211788666E0,1.778142068E0
2.154373500E0,-3.039300104E-1,-9.657357851E-1,-1.026458827E0,1.441747822E0
2.164315500E0,1.200141013E-1,-7.609788644E-1,-8.592395693E-1,1.154029832E0
2.174256500E0,4.984176855E-1,-5.142544305E-1,-7.314773226E-1,1.023687883E0
2.184198500E0,7.249958302E-1,-2.469448739E-1,-6.533865881E-1,1.006734701E0
2.194140500E0,7.880941576E-1,7.301359713E-2,-5.449482197E-1,9.609328534E-1
2.204082500E0,7.343629235E-1,3.781923535E-1,-3.151380265E-1,8.840986005E-1
2.214024500E0,6.430191093E-1,5.955456385E-1,-1.409044486E-1,8.876949060E-1
2.223966500E0,4.684306055E-1,7.010311630E-1,-1.730775833E-2,8.433098376E-1
2.233908500E0,2.252173697E-1,7.885116488E-1,1.353355604E-1,8.311372918E-1
2.243850500E0,3.508148493E-2,8.951227623E-1,2.710763329E-1,9.359261982E-1
2.253791500E0,-1.658679664E-2,9.670177871E-1,2.894050151E-1,1.009531468E0
2.263733500E0,3.532719590E-2,1.006858960E0,2.505432504E-1,1.038164196E0
2.273675500E0,1.710814901E-2,1.056460598E0,3.663748384E-1,1.118316685E0
2.283617500E0,-7.948938847E-2,1.115588813E0,7.239677435E-1,1.332286101E0
2.293559500E0,-1.355778544E-1,1.196982054E0,1.212701417E0,1.709325048E0
2.303501500E0,-1.210399953E-1,1.184861069E0,1.651334392E0,2.036038238E0
2.313443500E0,-2.039215545E-1,1.129369823E0,1.994795161E0,2.301362191E0
2.323385500E0,-3.913502698E-1,1.145519540E0,2.213065290E0,2.522504317E0
2.333326625E0,-6.084230346E-1,1.157858919E0,2.276944367E0,2.625888710E0
2.343268625E0,-7.325794496E-1,1.095265645E0,2.175326775E0,2.543290401E0
2.353210625E0,-7.878057437E-1,1.040245100E0,2.028941731E0,2.412333374E0
2.363152625E0,-6.878030802E-1,1.030836638E0,2.038476786E0,2.385599476E0
2.373094625E0,-3.707231203E-1,1.003310285E0,2.157151290E0,2.407772591E0
2.383036625E0,1.135235457E-1,8.977896774E-1,2.255361124E0,2.430137383E0
2.392978625E0,6.898441970E-1,6.187099680E-1,2.374614503E0,2.549015708E0
2.402920625E0,1.127160964E0,2.948060882E-1,2.566808388E0,2.818848660E0
2.412861625E0,1.285520155E0,7.146993220E-2,2.574650089E0,2.878626947E0
2.422803625E0,1.326113865E0,-1.868726268E-1,2.419022352E0,2.764989783E0
2.432745625E0,1.301786525E0,-5.302845722E-1,2.249999228E0,2.652988203E0
2.442687625E0,1.159034867E0,-8.178632095E-1,1.901284150E0,2.372160086E0
2.452629625E0,8.591732034E-1,-9.403196928E-1,1.492476068E0,1.962107166E0
2.462571625E0,4.957618070E-1,-9.104702416E-1,1.306110687E0,1.667531396E0
2.472513625E0,1.665360839E-1,-8.587872872E-1,1.267639516E0,1.540181747E0
2.482455625E0,-2.550670585E-2,-8.170717889E-1,1.561276746E0,1.762339915E0
2.492396625E0,-3.270435423E-2,-8.591208708E-1,2.040578860E0,2.214299061E0
2.502338625E0,4.395193035E-2,-9.623341674E-1,2.341839690E0,2.532238526E0
2.512280625E0,1.856729975E-1,-1.103006482E0,2.362698462E0,2.614085267E0
2.522222625E0,3.328362326E-1,-1.257205452E0,1.926511377E0,2.324390585E0
2.532164625E0,4.390313168E-1,-1.264974063E0,1.075631572E0,1.717524718E0
2.542106625E0,5.532570400E-1,-1.113757172E0,5.365638971E-2,1.244759977E0
2.552048625E0,7.777990381E-1,-9.824009344E-1,-9.602952433E-1,1.578686129E0
2.561989625E0,1.075309537E0,-8.427314177E-1,-1.704220703E0,2.184228708E0
2.571931625E0,1.298960711E0,-6.780212000E-1,-2.139361721E0,2.593044591E0
2.581873625E0,1.438059686E0,-5.283047050E-1,-2.338035491E0,2.795269482E0
2.591815625E0,1.514063988E0,-4.596259412E-1,-2.238663815E0,2.741397717E0
2.601757625E0,1.595154051E0,-4.123085180E-1,-1.930448892E0,2.537941624E0
2.611699625E0,1.682627521E0,-3.972916988E-1,-1.592690327E0,2.350688951E0
2.621641625E0,1.693932527E0,-4.116857895E-1,-1.347863899E0,2.203549339E0
2.631583625E0,1.560899747E0,-4.340636685E-1,-1.159339142E0,1.992206448E0
2.641524625E0,1.334246611E0,-3.919198617E-1,-1.105886820E0,1.776738826E0
2.651466625E0,1.038775987E0,-3.443381444E-1,-1.178310433E0,1.608116844E0
2.661408625E0,7.322244506E-1,-2.827342191E-1,-1.365908407E0,1.575372039E0
2.671350625E0,4.399016748E-1,-2.037169933E-1,-1.689109744E0,1.757300721E0
2.681292625E0,1.612330247E-1,-7.163979381E-2,-2.071203652E0,2.078704625E0
2.691234625E0,-6.207652643E-2,9.879981816E-2,-2.459476313E0,2.462242602E0
2.701176625E0,-2.153565339E-1,2.769147778E-1,-2.794966158E0,2.816894754E0
2.711117625E0,-3.272397164E-1,4.225890926E-1,-2.938366783E0,2.986581110E0
2.721059625E0,-4.122949232E-1,4.947066039E-1,-2.890478672E0,2.961349132E0
2.731001625E0,-4.688086279E-1,5.154990104E-1,-2.723946462E0,2.811655222E0
2.740943625E0,-5.488317941E-1,4.595046115E-1,-2.484066194E0,2.585139393E0
2.750885625E0,-7.249283680E-1,4.143307775E-1,-2.183737410E0,2.337926476E0
2.760827625E0,-9.830181811E-1,4.128762826E-1,-1.887704576E0,2.167999109E0
2.770769625E0,-1.193703009E0,4.155002207E-1,-1.638296270E0,2.069198390E0
2.780711625E0,-1.309065577E0,3.797860122E-1,-1.537347600E0,2.054587001E0
2.790652625E0,-1.365471766E0,4.063434809E-1,-1.531447760E0,2.091640602E0
2.800594625E0,-1.345555419E0,5.635125446E-1,-1.513348873E0,2.101973022E0
2.810536625E0,-1.189512017E0,7.551529911E-1,-1.478008887E0,2.041985589E0
2.820478625E0,-8.831618442E-1,9.003428641E-1,-1.319666871E0,1.825407562E0
2.830420625E0,-5.616507912E-1,1.002936356E0,-1.000076775E0,1.523642511E0
2.840362625E0,-2.773162622E-1,1.044603615E0,-5.569817895E-1,1.215865837E0
2.850304625E0,-2.753541559E-2,1.078534130E0,-1.981445968E-1,1.096929966E0
2.860245625E0,1.370239440E-1,1.032578523E0,1.810391521E-1,1.057246018E0
2.870187625E0,1.463687447E-1,9.522576606E-1,5.927439451E-1,1.131178079E0
2.880129625E0,1.047097452E-2,8.613279024E-1,9.476868922E-1,1.280666171E0
2.890071625E0,-2.183246537E-1,7.323155209E-1,1.153982508E0,1.384061886E0
2.900013625E0,-4.536948911E-1,5.981394634E-1,1.322289348E0,1.520545623E0
2.909955625E0,-6.610780887E-1,4.619467011E-1,1.463867980E0,1.671325360E0
2.919897625E0,-7.259903685E-1,3.103213826E-1,1.698503881E0,1.873039457E0
2.929838625E0,-6.319004095E-1,1.344619864E-1,1.937508820E0,2.042380616E0
2.939780625E0,-3.730810831E-1,-3.811916828E-2,2.307094365E0,2.337376087E0
2.949722625E0,4.847232141E-2,-2.147676462E-1,2.495416224E0,2.505110145E0
2.959664625E0,4.805925947E-1,-4.653073883E-1,2.393504518E0,2.485225158E0
2.969606625E0,7.560035417E-1,-7.286615959E-1,2.101468256E0,2.349182391E0
2.979548625E0,6.413381079E-1,-7.341582710E-1,1.576537979E0,1.853584348E0
2.989490625E0,2.175069936E-1,-5.109966543E-1,1.126357922E0,1.255830021E0
2.999432625E0,-1.580019996E-1,-3.542377728E-1,9.600075603E-1,1.035405016E0
3.009373625E0,-3.323194119E-1,-3.857703450E-1,1.057755464E0,1.173925710E0
3.019315625E0,-3.269102257E-1,-5.261090755E-1,1.341493943E0,1.477588256E0
3.029257625E0,-1.098866507E-1,-7.298860028E-1,1.480006880E0,1.653852780E0
3.039199625E0,2.354821385E-1,-8.735906830E-1,1.538708832E0,1.785003470E0
3.049141625E0,5.532841565E-1,-8.744753668E-1,1.519148142E0,1.838108158E0
3.059083625E0,6.710293919E-1,-7.136544245E-1,1.338159860E0,1.658389247E0
3.069025625E0,6.366701294E-1,-4.672895944E-1,1.170849971E0,1.412302401E0
3.078966625E0,5.393129656E-1,-2.546550125E-1,1.021465890E0,1.182835667E0
3.088908625E0,4.291680872E-1,-1.054650593E-1,9.198716873E-1,1.020525378E0
3.098850625E0,2.678203109E-1,6.313823462E-3,7.376151448E-1,7.847570867E-1
3.108792625E0,1.628332615E-2,1.454146984E-1,6.322728771E-1,6.489834916E-1
3.118734625E0,-2.706731674E-1,2.638575067E-1,7.335121536E-1,8.251816933E-1
3.128676625E0,-4.533061244E-1,2.324181975E-1,9.649964046E-1,1.091202420E0
3.138618625E0,-4.835254119E-1,8.329504877E-2,1.162616506E0,1.261908091E0
3.148559625E0,-3.770584323E-1,-8.177170292E-2,1.244931854E0,1.303347611E0
3.158501625E0,-2.735136717E-1,-1.757385050E-1,1.125849214E0,1.171849053E0
3.168443625E0,-2.053675161E-1,-2.016074641E-1,8.931288618E-1,9.383499081E-1
3.178385625E0,-2.350438897E-1,-1.587527820E-1,7.548872352E-1,8.064135501E-1
3.188327625E0,-3.561354867E-1,-3.329024523E-2,5.712168360E-1,6.739654286E-1
3.198269625E0,-4.661489488E-1,4.699480310E-2,3.170243382E-1,5.656923060E-1
3.208211625E0,-5.049991652E-1,7.887660027E-2,1.496179694E-1,5.325703819E-1
3.218152625E0,-5.270811021E-1,9.615176037E-2,1.383334279E-2,5.359580306E-1
3.228094625E0,-5.302071697E-1,1.347713041E-1,-1.764689684E-1,5.748254031E-1
3.238036625E0,-4.699310010E-1,1.485110915E-1,-4.476552290E-1,6.657971868E-1
3.247978625E0,-3.053496413E-1,1.527010600E-1,-8.313448423E-1,8.987158973E-1
3.257920625E0,-7.485101156E-2,1.732541692E-1,-1.215972934E0,1.230532347E0
3.267862625E0,2.356581397E-1,2.206648555E-1,-1.478519349E0,1.513356270E0
3.277804625E0,5.730245758E-1,2.340643349E-1,-1.543687152E0,1.663163642E0
3.287745625E0,8.503159142E-1,1.595482957E-1,-1.442906297E0,1.682400486E0
3.297687625E0,1.038556278E0,2.006062746E-2,-1.225802688E0,1.606733892E0
3.307629625E0,1.136034991E0,-1.118139660E-1,-9.061365777E-1,1.457450294E0
3.317571625E0,1.070403211E0,-2.223710731E-1,-6.489134681E-1,1.271338121E0
3.327513625E0,8.897374767E-1,-2.687522109E-1,-5.920528042E-1,1.101992310E0
3.337455500E0,5.700931473E-1,-2.007191259E-1,-6.071473914E-1,8.566926631E-1
3.347397500E0,2.050125170E-2,1.258759350E-3,-7.023289526E-1,7.026292361E-1
3.357338500E0,-5.589648727E-1,2.842600501E-1,-8.282902569E-1,1.038898578E0
3.367280500E0,-1.025653008E0,5.096851239E-1,-7.960797000E-1,1.394806763E0
3.377222500E0,-1.305732664E0,7.180854446E-1,-6.891247702E-1,1.641790926E0
3.387164500E0,-1.366248423E0,9.109289557E-1,-5.073588091E-1,1.718673697E0
3.397106500E0,-1.277015672E0,1.052595004E0,-2.776907033E-1,1.678045708E0
3.407048500E0,-1.108207434E0,1.151399500E0,1.746387899E-2,1.598170677E0
3.416989500E0,-9.079781583E-1,1.239205237E0,3.308898407E-1,1.571477662E0
3.426931500E0,-6.927521635E-1,1.302808179E0,5.131130540E-1,1.562209883E0
3.436873500E0,-4.589030792E-1,1.320314304E0,7.460491687E-1,1.584427739E0
3.446815500E0,-2.694838437E-1,1.259469494E0,1.028837475E0,1.648451242E0
3.456757500E0,-1.523851642E-1,1.123949454E0,1.322908568E0,1.742575878E0
3.466699500E0,-1.995657626E-1,9.634201415E-1,1.626076174E0,1.900560072E0
3.476641500E0,-4.135521477E-1,8.119072357E-1,1.879764057E0,2.088954679E0
3.486582500E0,-6.693528490E-1,6.871346703E-1,1.837798006E0,2.073086781E0
3.496524500E0,-8.873734474E-1,7.071482277E-1,1.510643951E0,1.889321412E0
3.506466500E0,-9.877614424E-1,7.911493278E-1,1.159322185E0,1.716280238E0
3.516408500E0,-9.338304529E-1,8.166721317E-1,8.615802097E-1,1.510401650E0
3.526350500E0,-7.619788114E-1,8.263098049E-1,7.019763654E-1,1.325205803E0
3.536292500E0,-4.542820247E-1,8.019269156E-1,6.541502345E-1,1.130208594E0
3.546233500E0,-1.006364286E-1,7.046470812E-1,6.183079720E-1,9.428467256E-1
3.556175500E0,1.555654648E-1,6.442128915E-1,6.557196271E-1,9.322977490E-1
3.566117500E0,2.097561438E-1,6.297269994E-1,7.287332243E-1,9.857006877E-1
3.576059500E0,1.124247077E-1,5.293387851E-1,8.772495782E-1,1.030730657E0
3.586001500E0,-4.382378496E-2,3.642555150E-1,1.076988711E0,1.137764162E0
3.595943500E0,-2.880266619E-1,2.110502788E-1,1.163491834E0,1.217051694E0
3.605885500E0,-6.447623105E-1,7.195832089E-2,1.335917453E0,1.485116790E0
3.615826500E0,-1.109248019E0,-2.649680391E-2,1.599894682E0,1.946996723E0
3.625768500E0,-1.584182482E0,-2.178184310E-1,1.904258628E0,2.486620182E0
3.635710500E0,-1.936361158E0,-5.483685485E-1,2.319978120E0,3.071237711E0
3.645652500E0,-2.110059569E0,-8.315442324E-1,2.736227953E0,3.553978139E0
3.655594500E0,-2.024867684E0,-9.423419523E-1,2.909442362E0,3.667826652E0
3.665536500E0,-1.521079185E0,-1.014572753E0,2.855207098E0,3.390464176E0
3.675477500E0,-6.870973212E-1,-1.133698224E0,2.692808869E0,3.001431991E0
3.685419500E0,1.361778519E-1,-1.212118449E0,2.405824016E0,2.697362553E0
3.695361500E0,8.080577943E-1,-1.234555093E0,2.073304557E0,2.544734851E0
3.705303500E0,1.264357474E0,-1.211650526E0,1.656445443E0,2.410499601E0
3.715245500E0,1.433633636E0,-1.136802365E0,1.146066547E0,2.158956588E0
3.725187500E0,1.294760364E0,-1.012260911E0,5.879960060E-1,1.745513063E0
3.735129500E0,1.012123062E0,-9.329729587E-1,1.030063051E-1,1.380377461E0
3.745070500E0,6.857987277E-1,-8.862766559E-1,-3.204964149E-1,1.165557445E0
3.755012500E0,4.147240759E-1,-8.136346494E-1,-6.492151845E-1,1.120481038E0
3.764954500E0,2.630802655E-1,-7.794190823E-1,-8.371721774E-1,1.173696122E0
3.774896500E0,2.264467286E-1,-7.438905229E-1,-8.870693922E-1,1.179636952E0
3.784838500E0,2.646448343E-1,-7.531419875E-1,-8.142072380E-1,1.140260132E0
3.794780500E0,3.590463037E-1,-7.581792176E-1,-8.539805835E-1,1.197093485E0
3.804721500E0,4.315150865E-1,-7.535325815E-1,-1.012302718E0,1.333706645E0
3.814663500E0,4.801615088E-1,-7.221239702E-1,-1.337402061E0,1.593945537E0
3.824605500E0,4.780458400E-1,-6.331799264E-1,-1.828661731E0,1.993351041E0
3.834547500E0,4.163001928E-1,-5.361563462E-1,-2.437970254E0,2.530705126E0
3.844489500E0,3.228139223E-1,-4.284728533E-1,-2.960295596E0,3.008512561E0
3.854431500E0,2.420897846E-1,-2.792881626E-1,-3.391261702E0,3.411343617E0
3.864372500E0,1.661213701E-1,-1.251079032E-1,-3.801179001E0,3.806863551E0
3.874314500E0,9.945382923E-2,1.638506770E-2,-4.039696283E0,4.040953550E0
3.884256500E0,7.653712928E-3,1.892313936E-1,-4.157269172E0,4.161580718E0
3.894198500E0,4.812656824E-2,2.962769553E-1,-4.125926927E0,4.136830817E0
3.904140500E0,-3.127061695E-2,3.152552631E-1,-4.021184583E0,4.033644653E0
3.914082500E0,-2.058399712E-1,4.016569376E-1,-3.823974956E0,3.850517219E0
3.924023500E0,-3.701938742E-1,4.661929491E-1,-3.390706801E0,3.442567644E0
3.933965500E0,-4.833937765E-1,4.780341455E-1,-2.908986863E0,2.987371882E0
3.943907500E0,-5.372388851E-1,4.992341030E-1,-2.383043849E0,2.493342795E0
3.953849500E0,-6.241790150E-1,5.665358475E-1,-1.955474975E0,2.129423558E0
3.963791500E0,-6.868893796E-1,6.542782885E-1,-1.640911145E0,1.895385577E0
3.973733500E0,-6.975800633E-1,6.998851088E-1,-1.440943387E0,1.747219206E0
3.983675500E0,-6.444979432E-1,7.642331323E-1,-1.203987896E0,1.564933460E0
3.993616500E0,-5.492833819E-1,8.429299307E-1,-8.376937491E-1,1.309188267E0
4.003558500E0,-4.158652331E-1,8.831561431E-1,-3.631109226E-1,1.041517262E0
4.013500500E0,-2.107185955E-1,8.129530102E-1,2.702080214E-1,8.822172624E-1
4.023442500E0,6.112262629E-2,6.252410156E-1,1.023339338E0,1.200785453E0
4.033384500E0,2.265717859E-1,4.698439506E-1,1.681858027E0,1.760890268E0
4.043326500E0,2.437645733E-1,3.238530090E-1,2.167129564E0,2.204711429E0
4.053267500E0,2.571543317E-1,1.685304961E-1,2.473546468E0,2.492581595E0
4.063209500E0,2.452001744E-1,1.310010195E-1,2.518963546E0,2.534257631E0
4.073151500E0,2.700123955E-1,1.752471927E-1,2.442003663E0,2.463128126E0
4.083093500E0,3.785351100E-1,1.903026035E-1,2.379133816E0,2.416564012E0
4.093035500E0,5.818789779E-1,2.259434295E-1,2.371380408E0,2.452157951E0
4.102977500E0,8.914162123E-1,2.253826815E-1,2.325564550E0,2.500734030E0
4.112918500E0,1.174575889E0,1.866270438E-1,2.191373289E0,2.493306051E0
4.122860500E0,1.280820894E0,3.115060285E-1,1.920984589E0,2.329746759E0
4.132802500E0,1.181293609E0,4.655927324E-1,1.696675456E0,2.119183519E0
4.142744500E0,9.795154797E-1,5.150318179E-1,1.683826200E0,2.014938962E0
4.152686500E0,6.868195054E-1,3.533805710E-1,1.792950447E0,1.952247465E0
4.162628500E0,3.526220410E-1,4.043788165E-2,1.951091318E0,1.983112416E0
4.172569500E0,6.809725821E-2,-3.621344376E-1,1.994013973E0,2.027774720E0
4.182511500E0,-2.459898043E-1,-7.274415743E-1,1.900550324E0,2.049822861E0
4.192453500E0,-5.463237771E-1,-9.442186162E-1,1.560793181E0,1.904230506E0
4.202395500E0,-7.844508306E-1,-1.041200535E0,9.936272961E-1,1.639132961E0
4.212337500E0,-9.829293034E-1,-1.052111732E0,4.901352507E-1,1.520960774E0
4.222278500E0,-1.103352417E0,-9.681188178E-1,1.718420666E-1,1.477893872E0
4.232220500E0,-1.063062324E0,-9.697115993E-1,1.630373293E-1,1.448110238E0
4.242162500E0,-9.059974140E-1,-1.039288495E0,5.396442103E-1,1.480597097E0
4.252104500E0,-7.298026800E-1,-1.091498284E0,1.103109393E0,1.714885065E0
4.262046500E0,-4.917641388E-1,-1.150155213E0,1.594694753E0,2.026756111E0
4.271988500E0,-1.589531223E-1,-1.221990303E0,1.936112505E0,2.295007196E0
4.281929500E0,2.001020253E-1,-1.204476723E0,2.120326111E0,2.446750460E0
4.291871500E0,4.842117654E-1,-1.067335250E0,2.034535178E0,2.347977632E0
4.301813500E0,5.929449066E-1,-8.680755892E-1,1.709396074E0,2.006781958E0
4.311755500E0,4.827736427E-1,-6.061654978E-1,1.196754890E0,1.425738148E0
4.321697500E0,2.354506001E-1,-3.094741210E-1,6.572673851E-1,7.636829396E-1
4.331639500E0,4.903898969E-2,-3.915120184E-2,1.392274672E-1,1.527151817E-1
4.341581125E0,-6.600201812E-2,1.407623613E-1,-3.596750987E-1,3.918373200E-1
4.351523125E0,-2.350768900E-1,2.981698452E-1,-6.943059880E-1,7.913451874E-1
4.361465125E0,-4.355031800E-1,4.208969083E-1,-7.895150310E-1,9.950634208E-1
4.371407125E0,-5.642804302E-1,4.880007246E-1,-7.941588897E-1,1.089607936E0
4.381349125E0,-5.662780949E-1,4.466528700E-1,-7.671359825E-1,1.052932706E0
4.391291125E0,-4.528122905E-1,3.365309420E-1,-7.374572700E-1,9.285123965E-1
4.401232125E0,-3.742981810E-1,2.757030885E-1,-8.070286113E-1,9.313466061E-1
4.411174125E0,-3.208730487E-1,2.634150186E-1,-9.868714231E-1,1.070636349E0
4.421116125E0,-2.257756875E-1,2.319499817E-1,-1.242129868E0,1.283612895E0
4.431058125E0,-1.241260095E-1,2.292020828E-1,-1.593590798E0,1.614767009E0
4.441000125E0,-8.328532778E-2,3.153040874E-1,-1.942095961E0,1.969286631E0
4.450941125E0,-1.114380449E-1,4.263678557E-1,-2.145119475E0,2.189919073E0
4.460883125E0,-1.344687747E-1,5.044691151E-1,-2.188628606E0,2.250036914E0
4.470825125E0,-1.287198745E-1,5.344018891E-1,-2.154210141E0,2.223235371E0
4.480767125E0,-1.299358030E-1,5.653702050E-1,-2.091969454E0,2.170912936E0
4.490709125E0,-1.620660337E-1,5.961379614E-1,-1.952359579E0,2.047768003E0
4.500651125E0,-2.364707565E-1,6.911940998E-1,-1.869261873E0,2.006939873E0
4.510592125E0,-3.786354263E-1,8.751232383E-1,-1.912867484E0,2.137350575E0
4.520534125E0,-5.617514364E-1,1.212725975E0,-1.971098735E0,2.381490960E0
4.530476125E0,-7.337038692E-1,1.711604860E0,-1.981963447E0,2.719575641E0
4.540418125E0,-8.091224261E-1,2.306068471E0,-1.758565310E0,3.010844208E0
4.550360125E0,-6.321097398E-1,2.749059376E0,-1.165323767E0,3.052027139E0
4.560301125E0,-1.744705363E-1,2.868453672E0,-8.706679523E-2,2.875073402E0
4.570243125E0,4.671681916E-1,2.634929620E0,1.387895107E0,3.014523686E0
4.580185125E0,9.314704435E-1,2.204803466E0,2.664621781E0,3.581760007E0
4.590127125E0,1.175125966E0,1.725002000E0,3.560463166E0,4.127160149E0
4.600069125E0,1.272778634E0,1.273705710E0,3.863119726E0,4.262157400E0
4.610011125E0,1.215137659E0,9.437385598E-1,3.476514691E0,3.801757014E0
4.619952125E0,1.152013312E0,6.589095756E-1,2.677050623E0,2.987958590E0
4.629894125E0,1.060298565E0,4.131543177E-1,1.976567636E0,2.280734346E0
4.639836125E0,9.336602989E-1,2.823813397E-1,1.651793983E0,1.918302410E0
4.649778125E0,8.258447320E-1,1.498363629E-1,1.675417904E0,1.873898506E0
4.659720125E0,7.429416659E-1,2.600870758E-2,1.957298722E0,2.093718476E0
4.669661125E0,7.501091829E-1,-1.174582833E-1,2.216291783E0,2.342735475E0
4.679603125E0,9.028718580E-1,-3.388970178E-1,2.234874235E0,2.434068944E0
4.689545125E0,1.058001047E0,-5.445029542E-1,1.968140629E0,2.299875479E0
4.699487125E0,1.114974270E0,-6.050871250E-1,1.527480424E0,1.985571580E0
4.709429125E0,1.091863443E0,-7.014764285E-1,1.221607895E0,1.782290887E0
4.719371125E0,9.865806703E-1,-9.664497301E-1,1.219084822E0,1.842154799E0
4.729312125E0,7.606957861E-1,-1.276854728E0,1.353877761E0,2.010472846E0
4.739254125E0,4.169843171E-1,-1.523447892E0,1.634697894E0,2.273105058E0
4.749196125E0,2.980625488E-2,-1.733785980E0,1.966435581E0,2.621787774E0
4.759138125E0,-3.421599834E-1,-1.858955863E0,2.385635920E0,3.043690046E0
4.769080125E0,-6.810236721E-1,-1.910511349E0,2.746813168E0,3.414502809E0
4.779021125E0,-1.000981339E0,-1.872415277E0,2.912089396E0,3.603909996E0
4.788963125E0,-1.212931943E0,-1.809367674E0,2.792379350E0,3.541524772E0
4.798905125E0,-1.244526934E0,-1.685399393E0,2.310036684E0,3.118603515E0
4.808847125E0,-1.125093462E0,-1.474335081E0,1.492026417E0,2.380260922E0
4.818789125E0,-8.629367638E-1,-1.239253038E0,6.150393784E-1,1.630546346E0
4.828731125E0,-4.097345737E-1,-1.027492030E0,-1.505962086E-1,1.116378749E0
4.838672125E0,1.266376079E-1,-8.494226789E-1,-7.488991016E-1,1.139476123E0
4.848614125E0,5.868164033E-1,-7.186865383E-1,-1.157379740E0,1.483371732E0
4.858556125E0,9.420585816E-1,-6.519987515E-1,-1.418334543E0,1.823252483E0
4.868498125E0,1.142294143E0,-6.852349100E-1,-1.563282341E0,2.053834090E0
4.878440125E0,1.197806073E0,-7.733436790E-1,-1.554684595E0,2.109465341E0
4.888381125E0,1.122592315E0,-9.362298578E-1,-1.397123768E0,2.022052095E0
4.898323125E0,9.277349498E-1,-1.128764344E0,-1.187295265E0,1.882676586E0
4.908265125E0,7.563113976E-1,-1.299598058E0,-1.055921777E0,1.837371177E0
4.918207125E0,6.399671551E-1,-1.456404594E0,-1.039327964E0,1.900230228E0
4.928149125E0,5.372586194E-1,-1.567879129E0,-1.082000359E0,1.979296988E0
4.938090125E0,4.775210524E-1,-1.634948739E0,-1.156192755E0,2.058607642E0
4.948032125E0,4.517729113E-1,-1.662109641E0,-1.299825515E0,2.157835395E0
4.957974125E0,4.150709619E-1,-1.666476926E0,-1.563093476E0,2.322216713E0
4.967916125E0,3.592224511E-1,-1.602089726E0,-1.939806776E0,2.541374154E0
4.977858125E0,3.866884310E-1,-1.499000391E0,-2.416699253E0,2.870011392E0
4.987799125E0,4.146720356E-1,-1.345227098E0,-3.006803765E0,3.320008693E0
4.997741125E0,4.469286393E-1,-1.149014421E0,-3.581906075E0,3.788143408E0
5.007683125E0,4.707105079E-1,-9.413628361E-1,-3.982957826E0,4.119670547E0
5.017625125E0,5.017536316E-1,-7.866069183E-1,-4.109412051E0,4.213997455E0
5.027567125E0,6.483495042E-1,-6.835123202E-1,-3.925136465E0,4.036612743E0
5.037508125E0,6.073497051E-1,-7.189122409E-1,-3.766908470E0,3.882693382E0
5.047450125E0,4.320082261E-1,-6.449873552E-1,-3.519503421E0,3.604101015E0
5.057392125E0,1.980350712E-1,-4.386388224E-1,-3.105413548E0,3.142485515E0
5.067334125E0,2.628221110E-2,-2.588384029E-1,-2.689568342E0,2.702122488E0
5.077276125E0,7.120154500E-3,-1.004969725E-1,-2.302741113E0,2.304944028E0
5.087217125E0,2.301478516E-1,4.435113072E-4,-1.865809677E0,1.879950526E0
5.097159125E0,5.088011710E-1,1.423969504E-1,-1.481492073E0,1.572887245E0
5.107101125E0,7.761864491E-1,3.996794093E-1,-1.076444920E0,1.385980772E0
5.117043125E0,9.117035656E-1,5.703286439E-1,-7.906406200E-1,1.334762430E0
5.126985125E0,9.796350552E-1,6.759942627E-1,-5.474964362E-1,1.310116572E0
5.136927125E0,9.069122109E-1,7.933315086E-1,-2.293178576E-1,1.226560769E0
5.146868125E0,6.499007705E-1,9.111175284E-1,1.792025417E-1,1.133410655E0
5.156810125E0,3.524283519E-1,9.915860331E-1,4.505408299E-1,1.144742610E0
5.166752125E0,3.471565023E-2,1.050429195E0,7.639738083E-1,1.299331617E0
5.176694125E0,-2.367957155E-1,1.054898515E0,1.190555672E0,1.608199582E0
5.186636125E0,-5.120114386E-1,9.769413891E-1,1.737331731E0,2.057885258E0
5.196577125E0,-7.858904882E-1,9.376212028E-1,2.408776276E0,2.701658847E0
5.206519125E0,-1.010090424E0,9.170784724E-1,3.101459661E0,3.388269118E0
5.216461125E0,-1.148685515E0,8.385527050E-1,3.855944023E0,4.109860504E0
5.226403125E0,-1.133651739E0,7.774779528E-1,4.418753732E0,4.627636846E0
5.236345125E0,-9.763284548E-1,6.900638330E-1,4.511506360E0,4.667236332E0
5.246286125E0,-8.123529397E-1,6.558339402E-1,4.310339338E0,4.434981472E0
5.256228125E0,-7.339286216E-1,8.376636359E-1,3.820478906E0,3.979496282E0
5.266170125E0,-6.221832141E-1,1.095833117E0,3.315028043E0,3.546459234E0
5.276112125E0,-3.342756709E-1,1.118365948E0,3.036096561E0,3.252747292E0
5.286054125E0,1.574216634E-3,9.327826318E-1,2.990537980E0,3.132635205E0
5.295995125E0,2.070405507E-1,6.864221871E-1,2.964902617E0,3.050358789E0
5.305937125E0,2.136569676E-1,4.367487100E-1,2.774276370E0,2.816559624E0
5.315879125E0,4.828630686E-3,2.648779920E-1,2.448976468E0,2.463263974E0
5.325821125E0,-2.418758861E-1,1.412099656E-1,2.042694967E0,2.061806715E0
5.335762250E0,-4.004032946E-1,-8.356548250E-2,1.642791025E0,1.692946644E0
5.345703250E0,-4.943312857E-1,-3.797687629E-1,1.402660496E0,1.534941107E0
5.355645250E0,-5.670984227E-1,-6.138243270E-1,1.224702242E0,1.482658594E0
5.365587250E0,-5.920976816E-1,-7.351072741E-1,9.158593279E-1,1.315203664E0
5.375529250E0,-5.570174209E-1,-7.764529359E-1,5.254541874E-1,1.090527245E0
5.385471250E0,-4.865982699E-1,-7.770399964E-1,1.544676501E-1,9.297468942E-1
5.395412250E0,-4.124321135E-1,-7.181705216E-1,-1.446507597E-1,8.407098123E-1
5.405354250E0,-3.585609117E-1,-6.644562444E-1,-2.675013453E-1,8.010149798E-1
5.415296250E0,-2.868371373E-1,-6.970410231E-1,-2.792852390E-1,8.038295689E-1
5.425238250E0,-1.971646035E-1,-8.017529610E-1,-2.393470019E-1,8.596328743E-1
5.435179250E0,-1.660727651E-1,-9.025805935E-1,-1.323452944E-1,9.272255217E-1
5.445121250E0,-2.213643287E-1,-9.706255192E-1,-5.184375286E-2,9.968971056E-1
5.455063250E0,-2.955228107E-1,-1.015305263E0,2.461677790E-3,1.057442466E0
5.465005250E0,-3.423089413E-1,-1.026505897E0,-6.174659729E-2,1.083836893E0
5.474947250E0,-3.625232774E-1,-9.414976144E-1,-2.938465601E-1,1.050802877E0
5.484888250E0,-3.835140507E-1,-7.871705899E-1,-5.926848882E-1,1.057353272E0
5.494830250E0,-3.703641012E-1,-6.069877625E-1,-9.619640386E-1,1.196235145E0
5.504772250E0,-3.134394834E-1,-3.683313167E-1,-1.365490916E0,1.448612339E0
5.514714250E0,-3.098031000E-1,-1.986299157E-2,-1.742936288E0,1.770367025E0
5.524656250E0,-3.175031521E-1,4.670068815E-1,-1.993030472E0,2.071490801E0
5.534597250E0,-2.930598173E-1,9.207832682E-1,-2.075691390E0,2.289589620E0
5.544539250E0,-2.205979049E-2,1.169577324E0,-2.000480994E0,2.317395512E0
5.554481250E0,4.561344226E-1,1.227422951E0,-1.785986997E0,2.214582414E0
5.564423250E0,9.721559548E-1,1.144929264E0,-1.472506072E0,2.103384024E0
5.574365250E0,1.360765488E0,1.041520962E0,-1.198266395E0,2.091002387E0
5.584306250E0,1.557461291E0,8.892673606E-1,-1.004092643E0,2.055403646E0
5.594248250E0,1.536187367E0,6.636171690E-1,-8.097773874E-1,1.859031681E0
5.604190250E0,1.332897512E0,3.782201278E-1,-6.430481261E-1,1.527474103E0
5.614132250E0,9.566458498E-1,4.461776376E-2,-4.761832094E-1,1.069538440E0
5.624074250E0,5.410930042E-1,-3.165969068E-1,-3.232954770E-1,7.053617554E-1
5.634015250E0,1.876190239E-1,-6.668766993E-1,-3.330006856E-1,7.686448379E-1
5.643957250E0,-1.172257103E-1,-9.492907834E-1,-4.079181361E-1,1.039851943E0
5.653899250E0,-3.668328215E-1,-1.086617905E0,-5.532857645E-1,1.273353811E0
5.663841250E0,-5.352576292E-1,-1.069496089E0,-6.773636806E-1,1.374461410E0
5.673782250E0,-5.546143980E-1,-9.422168219E-1,-7.002350646E-1,1.298344644E0
5.683724250E0,-4.859803654E-1,-7.952941266E-1,-6.249954325E-1,1.122180446E0
5.693666250E0,-4.756348868E-1,-6.389039120E-1,-3.880288321E-1,8.859983797E-1
5.703608250E0,-5.629593980E-1,-4.642385173E-1,-1.051949179E-1,7.372290387E-1
5.713550250E0,-6.986656719E-1,-3.291616961E-1,6.808673322E-2,7.753173199E-1
5.723491250E0,-8.345203190E-1,-2.560457727E-1,2.102448249E-1,8.978788821E-1
5.733433250E0,-9.788560599E-1,-1.097662711E-1,3.057158232E-1,1.031343776E0
5.743375250E0,-1.029397199E0,7.960984111E-3,1.793381971E-1,1.044932610E0
5.753317250E0,-9.573558480E-1,6.786746264E-2,-1.184949946E-1,9.670456431E-1
5.763258250E0,-9.267408501E-1,1.873734409E-1,-4.417015940E-1,1.043579277E0
5.773200250E0,-9.569920050E-1,3.313549867E-1,-5.819417989E-1,1.168026576E0
5.783142250E0,-9.251987931E-1,4.657655177E-1,-5.480601078E-1,1.171878921E0
5.793084250E0,-8.959537978E-1,6.025041175E-1,-3.838930964E-1,1.145913753E0
5.803026250E0,-8.001250961E-1,6.559453297E-1,-1.129231828E-1,1.040776676E0
5.812967250E0,-6.082262027E-1,4.570274386E-1,4.965221643E-2,7.624162484E-1
5.822909250E0,-6.082748808E-1,3.212644467E-1,8.807427049E-2,6.935173051E-1
5.832851250E0,-8.463806650E-1,6.282894614E-1,3.107859439E-1,1.098952128E0
5.842793250E0,-8.438856581E-1,8.969924095E-1,7.145087028E-1,1.423819185E0
5.852735250E0,-4.574732888E-1,7.681355640E-1,1.218807079E0,1.511557062E0
5.862676250E0,-7.328066871E-2,4.906036127E-1,1.411668717E0,1.496285577E0
5.872618250E0,8.228581935E-2,3.296981782E-1,1.122342054E0,1.172656613E0
5.882560250E0,2.566357568E-2,3.232504535E-1,5.442138094E-1,6.334967601E-1
5.892502250E0,-1.433227108E-1,4.547531641E-1,-1.277932370E-1,4.936324048E-1
5.902443250E0,-3.780416416E-1,5.788492066E-1,-3.324738514E-1,7.671510598E-1
5.912385250E0,-6.803361127E-1,6.385346603E-1,3.182335424E-1,9.858277366E-1
5.922327250E0,-8.840469664E-1,4.883693916E-1,1.705216484E0,1.981869562E0
5.932269250E0,-8.820752853E-1,-1.963027239E-2,3.057695591E0,3.182443163E0
5.942211250E0,-7.603156440E-1,-6.276208323E-1,4.146728396E0,4.262316762E0
5.952152250E0,-5.848367554E-1,-1.092132707E0,4.626214698E0,4.789222308E0
5.962094250E0,-3.060706030E-1,-1.399585153E0,4.326357200E0,4.557398868E0
5.972036250E0,2.834467024E-2,-1.559015335E0,3.567219624E0,3.893120610E0
5.981978250E0,2.628662574E-1,-1.586820600E0,2.649736524E0,3.099709976E0
5.991919250E0,4.143522660E-1,-1.612758556E0,1.879529584E0,2.511037518E0
6.001861250E0,5.869046232E-1,-1.663648043E0,1.379259939E0,2.239316822E0
6.011803250E0,8.197610696E-1,-1.707137294E0,1.119310273E0,2.199813956E0
6.021745250E0,1.013413981E0,-1.709032669E0,9.463069493E-1,2.200749283E0
6.031687250E0,1.097654525E0,-1.622113516E0,7.216961002E-1,2.087329149E0
6.041628250E0,1.100985245E0,-1.482364185E0,4.033274871E-1,1.890038399E0
6.051570250E0,1.079153642E0,-1.272179879E0,-9.814551473E-3,1.668265732E0
6.061512250E0,1.041647262E0,-1.035293970E0,-4.780847239E-1,1.544482964E0
6.071454250E0,1.017318752E0,-8.524524137E-1,-9.271128792E-1,1.618996866E0
6.081395250E0,1.018164844E0,-7.301985365E-1,-1.261257865E0,1.777813532E0
6.091337250E0,9.626072323E-1,-6.405428866E-1,-1.487993007E0,1.884417964E0
6.101279250E0,8.717695677E-1,-5.756534109E-1,-1.683049690E0,1.980912741E0
6.111221250E0,8.071476021E-1,-5.208840036E-1,-1.941090825E0,2.165788768E0
6.121162250E0,7.800004417E-1,-4.773637623E-1,-2.294881870E0,2.470376418E0
6.131104250E0,7.502477619E-1,-4.293458426E-1,-2.672948801E0,2.809246313E0
6.141046250E0,7.418973532E-1,-3.400673380E-1,-2.993093213E0,3.102364334E0
6.150988250E0,7.122117703E-1,-2.330346403E-1,-3.256529574E0,3.341636668E0
6.160930250E0,6.210685886E-1,-1.045148867E-1,-3.333974192E0,3.392938765E0
6.170871250E0,4.614245448E-1,8.527959377E-2,-3.115332765E0,3.150473529E0
6.180813250E0,3.197011936E-1,2.814606956E-1,-2.764376450E0,2.796999487E0
6.190755250E0,2.319450116E-1,3.875873673E-1,-2.409484958E0,2.451456754E0
6.200697250E0,1.142946473E-1,4.511831465E-1,-2.056969775E0,2.108969927E0
6.210638250E0,-1.235209689E-2,5.442331052E-1,-1.659170830E0,1.746193028E0
6.220580250E0,-9.112461671E-2,6.719538367E-1,-1.313844799E0,1.478517436E0
6.230522250E0,-2.571152285E-2,7.899798846E-1,-9.575599158E-1,1.241632108E0
6.240464250E0,1.357347791E-1,9.322943893E-1,-6.294334692E-1,1.133041593E0
6.250406250E0,1.956554371E-1,1.155999212E0,-3.290900677E-1,1.217750180E0
6.260347250E0,2.743123282E-1,1.371840115E0,-5.488781333E-2,1.400073293E0
6.270289250E0,4.490696704E-1,1.500210180E0,9.619722247E-2,1.568932139E0
6.280231250E0,6.370478596E-1,1.599595012E0,1.778185058E-1,1.730940091E0
6.290173250E0,7.513870919E-1,1.669301131E0,2.816592085E-1,1.852155700E0
6.300114250E0,7.427992862E-1,1.721008352E0,4.451362485E-1,1.926594614E0
6.310056250E0,6.156381333E-1,1.726765228E0,7.723762572E-1,1.989294736E0
6.319998250E0,4.146355636E-1,1.633845955E0,1.195996506E0,2.066829189E0
6.329940250E0,2.195356120E-1,1.458653141E0,1.585571342E0,2.165618007E0
6.339882000E0,1.106454000E-1,1.266789331E0,1.951000101E0,2.328819230E0
6.349824000E0,1.347237955E-1,1.050892003E0,2.244299946E0,2.481815213E0
6.359766000E0,2.190093626E-1,8.776021653E-1,2.379056048E0,2.545203006E0
6.369708000E0,2.943992682E-1,6.973629123E-1,2.477466441E0,2.590526188E0
6.379649000E0,2.763448204E-1,5.664095476E-1,2.527445517E0,2.604835326E0
6.389591000E0,1.817930044E-1,5.244323865E-1,2.410767252E0,2.473838469E0
6.399533000E0,1.334643053E-1,5.231047761E-1,2.094750389E0,2.163199141E0
6.409475000E0,1.396591379E-1,6.164415407E-1,1.661363536E0,1.777535836E0
6.419417000E0,2.214670935E-1,7.988603434E-1,1.366234682E0,1.598068436E0
6.429358000E0,3.747125293E-1,9.749808177E-1,1.354307531E0,1.710305810E0
6.439300000E0,6.743032479E-1,9.675130463E-1,1.569586224E0,1.963254257E0
6.449242000E0,1.024314215E0,7.042237428E-1,1.895834545E0,2.267011097E0
6.459184000E0,1.233647751E0,3.264705151E-1,2.297772149E0,2.628350551E0
6.469125000E0,1.224506360E0,-9.288682133E-2,2.545408164E0,2.826154013E0
6.479067000E0,9.979049729E-1,-5.218648741E-1,2.546095796E0,2.784018873E0
6.489009000E0,5.953882022E-1,-9.374077794E-1,2.286717403E0,2.542104824E0
6.498951000E0,9.296904780E-2,-1.279856688E0,1.921233096E0,2.310370748E0
6.508892000E0,-3.988113536E-1,-1.498838131E0,1.478170854E0,2.142558123E0
6.518834000E0,-7.770682092E-1,-1.648586493E0,1.083295518E0,2.120189049E0
6.528776000E0,-9.619854540E-1,-1.708252943E0,7.147063386E-1,2.086707762E0
6.538718000E0,-9.790083799E-1,-1.710600893E0,4.817105824E-1,2.028954880E0
6.548659000E0,-8.538944833E-1,-1.654686016E0,2.656103557E-1,1.880869602E0
6.558601000E0,-5.677915370E-1,-1.554084378E0,2.134555310E-1,1.668271185E0
6.568543000E0,-1.530526970E-1,-1.455331338E0,2.659342915E-1,1.487324940E0
6.578485000E0,3.428574101E-1,-1.354442602E0,2.587083024E-1,1.420913773E0
6.588427000E0,7.403176548E-1,-1.285306878E0,2.964316142E-1,1.512598989E0
6.598368000E0,9.216640782E-1,-1.234665313E0,3.253928733E-1,1.574720175E0
6.608310000E0,8.722241157E-1,-1.152349965E0,2.792454779E-1,1.471959030E0
6.618252000E0,6.431616352E-1,-1.026491572E0,5.826165676E-3,1.211352872E0
6.628193000E0,3.876688629E-1,-9.131374490E-1,-4.486235279E-1,1.088747086E0
6.638135000E0,2.140359402E-1,-8.129860470E-1,-9.009793335E-1,1.232283026E0
6.648077000E0,7.218197688E-2,-7.164353603E-1,-1.321633875E0,1.505060119E0
6.658019000E0,-6.469892956E-2,-6.487515002E-1,-1.588652240E0,1.717230445E0
6.667961000E0,-1.276818475E-1,-6.353853500E-1,-1.678758418E0,1.799512996E0
6.677902000E0,-1.041702665E-1,-7.061527392E-1,-1.607695452E0,1.759030358E0
6.687844000E0,7.310773730E-3,-8.223790142E-1,-1.478050987E0,1.691447726E0
6.697786000E0,1.329820561E-1,-8.959916586E-1,-1.385281402E0,1.655140430E0
6.707728000E0,2.280438955E-1,-9.168720657E-1,-1.344104725E0,1.642947325E0
6.717669000E0,3.005923466E-1,-8.785520455E-1,-1.517562962E0,1.779102807E0
6.727611000E0,3.891167796E-1,-7.990629494E-1,-1.827351370E0,2.032025220E0
6.737553000E0,5.170176785E-1,-6.675701791E-1,-2.175651296E0,2.333755725E0
6.747495000E0,6.097537147E-1,-6.114237526E-1,-2.435819063E0,2.584347714E0
6.757436000E0,6.285385528E-1,-5.794579017E-1,-2.597675255E0,2.734730133E0
6.767378000E0,5.942780718E-1,-5.405514058E-1,-2.593138985E0,2.714725040E0
6.777320000E0,5.543802901E-1,-5.586093619E-1,-2.544276727E0,2.663217226E0
6.787262000E0,5.123454608E-1,-6.715737677E-1,-2.572759684E0,2.707877691E0
6.797203000E0,4.413361796E-1,-7.471124849E-1,-2.637297158E0,2.776380915E0
6.807145000E0,2.790916231E-1,-7.066643706E-1,-2.851100598E0,2.950600157E0
6.817087000E0,4.682092153E-2,-4.977459866E-1,-3.059662594E0,3.100238452E0
6.827029000E0,-1.699778281E-1,-1.604502288E-1,-3.045151559E0,3.054109487E0
6.836970000E0,-2.657088082E-1,1.511189497E-1,-2.742830629E0,2.759811220E0
6.846912000E0,-2.143746402E-1,4.110794333E-1,-2.315454129E0,2.361412842E0
6.856854000E0,-8.423272289E-2,6.351131621E-1,-1.752898189E0,1.866310784E0
6.866796000E0,6.277629197E-2,7.822951815E-1,-1.105778646E0,1.355976780E0
6.876737000E0,1.466084075E-1,8.818244398E-1,-6.472394103E-1,1.103642706E0
6.886679000E0,1.438024749E-1,1.000497774E0,-2.420484155E-1,1.039356716E0
6.896621000E0,1.399963943E-1,1.187330056E0,1.830476707E-1,1.209486710E0
6.906563000E0,1.487670533E-1,1.371807663E0,4.877232742E-1,1.463510127E0
6.916504000E0,1.618936322E-1,1.513218773E0,7.430226499E-1,1.693553442E0
6.926446000E0,1.646175393E-1,1.591303952E0,9.226894605E-1,1.846808881E0
6.936388000E0,1.686620584E-1,1.685555514E0,1.114789206E0,2.027880483E0
6.946330000E0,8.415195823E-2,1.820911539E0,1.367932713E0,2.279043724E0
6.956271000E0,-6.171531469E-2,2.022977571E0,1.660988730E0,2.618230432E0
6.966213000E0,-1.529676931E-1,2.204441231E0,1.990890391E0,2.974324261E0
6.976155000E0,-6.547054733E-2,2.209833241E0,2.331886559E0,3.213307373E0
6.986097000E0,2.247492819E-1,2.011130235E0,2.618490173E0,3.309327402E0
6.996038000E0,5.916731738E-1,1.679460961E0,2.586884803E0,3.140483920E0
7.005980000E0,8.758348444E-1,1.335443244E0,2.205560389E0,2.723048285E0
7.015922000E0,9.835733011E-1,1.016367702E0,1.718592575E0,2.225753846E0
7.025864000E0,9.208291689E-1,6.698570251E-1,1.315694273E0,1.740024774E0
7.035805000E0,6.267047198E-1,2.762505341E-1,9.958065534E-1,1.208595820E0
7.045747000E0,1.433962396E-1,-1.502263722E-1,8.527906752E-1,8.777142930E-1
7.055689000E0,-5.626280071E-1,-4.649723428E-1,8.395970178E-1,1.112507396E0
7.065631000E0,-1.301769275E0,-6.596574345E-1,1.029475991E0,1.785937287E0
7.075572000E0,-1.819743704E0,-6.376058301E-1,1.410702172E0,2.389160723E0
7.085514000E0,-1.945425366E0,-4.651805037E-1,1.905762532E0,2.762789095E0
7.095456000E0,-1.496047985E0,-3.510571799E-1,2.275946247E0,2.746148583E0
7.105398000E0,-7.137731230E-1,-3.311240217E-1,2.419359151E0,2.544093923E0
7.115339000E0,9.452535734E-2,-2.598400310E-1,2.550238549E0,2.565183919E0
7.125281000E0,7.529690561E-1,-1.459491339E-1,2.710560431E0,2.816984451E0
7.135223000E0,1.109124862E0,-4.222245187E-2,2.741348945E0,2.957521721E0
7.145165000E0,1.144374509E0,-3.514264315E-2,2.699374707E0,2.932141169E0
7.155106000E0,9.724741164E-1,-8.767870635E-2,2.676405675E0,2.848954334E0
7.165048000E0,7.327454375E-1,-1.562677154E-1,2.642843242E0,2.746990330E0
7.174990000E0,4.650154661E-1,-2.926247844E-1,2.567122384E0,2.625259222E0
7.184932000E0,2.597059835E-1,-5.045117998E-1,2.400980183E0,2.467120831E0
7.194873000E0,2.929960826E-1,-7.695543909E-1,2.211666051E0,2.359984616E0
7.204815000E0,4.811974892E-1,-9.641728243E-1,2.015395487E0,2.285388201E0
7.214757000E0,7.216050299E-1,-1.097513315E0,1.775368454E0,2.208434387E0
7.224699000E0,8.827519543E-1,-1.185981103E0,1.476968667E0,2.089793921E0
7.234640000E0,9.305041181E-1,-1.203855456E0,1.201640823E0,1.938826073E0
7.244582000E0,8.719014224E-1,-1.098060907E0,9.315240186E-1,1.683355828E0
7.254524000E0,8.228874296E-1,-9.745913932E-1,5.061174452E-1,1.372270736E0
7.264465000E0,8.473920871E-1,-8.423592424E-1,-9.751518488E-2,1.198812602E0
7.274407000E0,9.221389452E-1,-6.813690233E-1,-7.106542182E-1,1.348937878E0
7.284349000E0,9.964307436E-1,-4.553992814E-1,-1.332495078E0,1.725052424E0
7.294291000E0,1.087801090E0,-2.194395715E-1,-1.877342725E0,2.180798167E0
7.304232000E0,1.145968021E0,-4.953848809E-2,-2.138491656E0,2.426693909E0
7.314174000E0,1.153492219E0,5.224428713E-2,-2.056532403E0,2.358516332E0
7.324116000E0,1.137381385E0,5.705216020E-2,-1.849419932E0,2.171922063E0
7.334058000E0,9.634740821E-1,-1.352753341E-3,-1.648755185E0,1.909627659E0
7.343998375E0,6.194030093E-1,-2.390020162E-2,-1.458804876E0,1.585037215E0
7.353940375E0,1.984627584E-1,-1.431983113E-2,-1.342763958E0,1.357426820E0
7.363882375E0,-1.619582988E-1,-9.578031600E-3,-1.427280198E0,1.436471716E0
7.373824375E0,-4.220850626E-1,-3.507130712E-2,-1.391940211E0,1.454951321E0
7.383765375E0,-5.150439508E-1,-2.575610787E-2,-1.268302590E0,1.369132977E0
7.393707375E0,-3.919610115E-1,-2.431593865E-2,-1.122864211E0,1.189558210E0
7.403649375E0,-1.396272705E-1,-6.301865906E-2,-1.076482927E0,1.087328201E0
7.413591375E0,2.876033418E-2,-1.523170441E-2,-1.064964496E0,1.065461656E0
7.423532375E0,4.520486075E-2,1.817349708E-1,-1.079919335E0,1.096036883E0
7.433474375E0,-7.488013800E-2,5.914104876E-1,-1.113207534E0,1.262776470E0
7.443416375E0,-1.907540086E-1,1.146310084E0,-9.944985312E-1,1.529523203E0
7.453358375E0,-2.128287826E-2,1.548846442E0,-6.676099402E-1,1.686736878E0
7.463299375E0,5.739097711E-1,1.658005188E0,-3.212887126E-1,1.783698423E0
7.473241375E0,1.488549370E0,1.476966036E0,-8.231534779E-2,2.098567062E0
7.483183375E0,2.266392774E0,1.115884682E0,8.514656961E-2,2.527644114E0
7.493124375E0,2.657769721E0,7.390377724E-1,1.573941815E-1,2.763094217E0
7.503066375E0,2.562753052E0,3.999287930E-1,1.584852719E-1,2.598608055E0
7.513008375E0,2.036977414E0,1.406620815E-1,1.586337912E-1,2.047981319E0
7.522950375E0,1.235338912E0,-9.222579360E-2,1.576134521E-1,1.248763318E0
7.532891375E0,3.594597749E-1,-2.465343994E-1,3.345624769E-1,5.494748318E-1
7.542833375E0,-3.321703809E-1,-2.861674118E-1,6.614984304E-1,7.936051430E-1
7.552775375E0,-6.615175800E-1,-2.980027610E-1,1.027696683E0,1.258003031E0
7.562717375E0,-5.462682286E-1,-4.038958365E-1,1.324059885E0,1.488178552E0
7.572658375E0,-1.390016185E-1,-5.244610378E-1,1.428139154E0,1.527731086E0
7.582600375E0,3.945661654E-1,-5.048222870E-1,1.359913257E0,1.503293739E0
7.592542375E0,8.656568885E-1,-4.715092376E-1,1.193164700E0,1.547683692E0
7.602484375E0,1.158461475E0,-4.229156595E-1,1.051231726E0,1.620487206E0
7.612425375E0,1.088659022E0,-3.978831446E-1,1.034903376E0,1.553870799E0
7.622367375E0,7.245469102E-1,-4.623361257E-1,1.156399162E0,1.440826825E0
7.632309375E0,2.333297785E-1,-6.465263423E-1,1.447426779E0,1.602336849E0
7.642251375E0,-1.815279794E-1,-9.168521851E-1,1.670591612E0,1.914274450E0
7.652192375E0,-5.195232104E-1,-1.015807247E0,1.841611560E0,2.166402979E0
7.662134375E0,-7.505854386E-1,-9.155315915E-1,1.970336843E0,2.298652621E0
7.672076375E0,-8.030959202E-1,-7.839785948E-1,1.986992637E0,2.282044091E0
7.682017375E0,-6.494818175E-1,-6.818335846E-1,1.946242806E0,2.162078798E0
7.691959375E0,-4.143521199E-1,-6.047751760E-1,1.761256784E0,1.907738491E0
7.701901375E0,-2.236272012E-1,-5.571142289E-1,1.352369179E0,1.479624204E0
7.711843375E0,-1.694248277E-1,-4.605457082E-1,8.629794484E-1,9.927440003E-1
7.721784375E0,-2.025859956E-1,-3.576671648E-1,4.123105645E-1,5.822086293E-1
7.731726375E0,-2.976791176E-1,-3.513624045E-1,1.555113780E-1,4.860578001E-1
7.741668375E0,-4.464359383E-1,-3.869181535E-1,4.506449103E-2,5.924875635E-1
7.751610375E0,-6.714163314E-1,-4.161016068E-1,9.118732810E-2,7.951449969E-1
7.761551375E0,-8.828593969E-1,-4.553899258E-1,1.092628258E-1,9.993793396E-1
7.771493375E0,-1.059851618E0,-4.823970455E-1,3.867348433E-2,1.165112870E0
7.781435375E0,-1.190476881E0,-4.096541744E-1,-1.706562513E-1,1.270501988E0
7.791376375E0,-1.292257756E0,-2.309620947E-1,-5.236281019E-1,1.413315246E0
7.801318375E0,-1.306101623E0,-7.570331633E-2,-8.234569484E-1,1.545869913E0
7.811260375E0,-1.335456400E0,2.457438558E-2,-9.730784261E-1,1.652552365E0
7.821202375E0,-1.371559156E0,8.052726924E-2,-8.153503686E-1,1.597640568E0
7.831143375E0,-1.291667479E0,-4.797055721E-3,-4.322524935E-1,1.362083003E0
7.841085375E0,-1.156511501E0,-2.318768916E-1,-1.313758260E-1,1.186821534E0
7.851027375E0,-1.077341736E0,-3.959246197E-1,-8.213700771E-2,1.150724993E0
7.860969375E0,-1.059740375E0,-4.423690537E-1,-3.177581638E-1,1.191515964E0
7.870910375E0,-1.069984185E0,-3.892503154E-1,-9.089537662E-1,1.456907311E0
7.880852375E0,-1.091796200E0,-3.144781682E-1,-1.533613569E0,1.908634600E0
7.890794375E0,-1.073046883E0,-2.155043954E-1,-2.001946306E0,2.281591719E0
7.900736375E0,-9.722269253E-1,-1.582297486E-1,-2.296243687E0,2.498598991E0
7.910677375E0,-8.152255306E-1,-2.419311789E-1,-2.422197390E0,2.567131386E0
7.920619375E0,-6.717465529E-1,-3.591286764E-1,-2.418093814E0,2.535230666E0
7.930561375E0,-6.250614329E-1,-4.841824928E-1,-2.322250932E0,2.453157939E0
7.940502375E0,-6.321546172E-1,-5.860754880E-1,-2.193417476E0,2.356731669E0
7.950444375E0,-6.437622173E-1,-6.101300561E-1,-2.156032718E0,2.331344153E0
7.960386375E0,-6.722201774E-1,-5.565055338E-1,-2.015200190E0,2.196044212E0
7.970328375E0,-6.822753417E-1,-4.301366785E-1,-1.781044346E0,1.955156302E0
7.980269375E0,-7.005326879E-1,-2.651089570E-1,-1.438617364E0,1.621927473E0
7.990211375E0,-6.413684403E-1,-1.290009794E-1,-8.973616612E-1,1.110519104E0
8.000153375E0,-5.638243474E-1,-5.152478725E-2,-3.354939383E-1,6.581100828E-1
8.010094375E0,-5.947266629E-1,5.735241473E-2,1.921102703E-1,6.276109136E-1
8.020036375E0,-6.816637230E-1,1.942304707E-1,7.031732905E-1,9.984205444E-1
8.029978375E0,-7.644222897E-1,3.116536707E-1,1.077545366E0,1.357414256E0
8.039920375E0,-7.326186260E-1,4.855735454E-1,1.433862993E0,1.681807005E0
8.049861375E0,-4.172250031E-1,6.917200568E-1,1.797397254E0,1.970581191E0
8.059803375E0,2.971986227E-1,5.945220834E-1,1.959163399E0,2.068841403E0
8.069745375E0,1.145453759E0,2.644727799E-1,1.940092705E0,2.268473026E0
8.079687375E0,1.563715327E0,2.230128050E-3,1.575742173E0,2.219949097E0
8.089628375E0,1.287213363E0,-1.292901242E-1,1.007120331E0,1.639489414E0
8.099570375E0,2.716620047E-1,-6.438486099E-2,6.715234816E-1,7.272478542E-1
8.109512375E0,-1.000377541E0,1.046432331E-1,5.438009959E-1,1.143426847E0
8.119453375E0,-2.001758318E0,2.566380957E-1,5.615285844E-1,2.094806394E0
8.129395375E0,-2.515445569E0,3.662108240E-1,7.317468792E-1,2.645190026E0
8.139337375E0,-2.511871166E0,5.537944722E-1,9.966292566E-1,2.758524052E0
8.149279375E0,-1.962390769E0,7.778051046E-1,1.150226841E0,2.403950935E0
8.159220375E0,-1.043625595E0,8.354370162E-1,1.033267910E0,1.689601126E0
8.169162375E0,-2.385122388E-1,8.918582618E-1,8.170630181E-1,1.232838685E0
8.179104375E0,3.460988872E-1,1.048323321E0,8.592740679E-1,1.398970389E0
8.189045375E0,6.779953261E-1,1.239212985E0,1.062556028E0,1.767583604E0
8.198987375E0,8.923759597E-1,1.267820780E0,1.400810437E0,2.089491389E0
8.208929375E0,1.037612026E0,1.080726836E0,1.896391200E0,2.416797218E0
8.218871375E0,1.016153475E0,7.546895993E-1,2.209179815E0,2.546094997E0
8.228812375E0,8.295528169E-1,3.701901466E-1,2.410598853E0,2.576079473E0
8.238754375E0,5.133463579E-1,5.583535463E-2,2.590476163E0,2.641440672E0
8.248696375E0,3.115456434E-1,-3.081409559E-1,2.902554926E0,2.935444879E0
8.258638375E0,2.104373445E-1,-7.789099360E-1,3.312248862E0,3.409102094E0
8.268579375E0,1.019184306E-1,-1.139594556E0,3.667311677E0,3.841645227E0
8.278521375E0,-1.078086964E-1,-1.326709258E0,3.780780405E0,4.008251569E0
8.288463375E0,-3.722261471E-1,-1.417380277E0,3.604208525E0,3.890737494E0
8.298404375E0,-5.286193583E-1,-1.417394310E0,3.119806470E0,3.467223308E0
8.308346375E0,-5.601392128E-1,-1.271694560E0,2.219919396E0,2.618970240E0
8.318288375E0,-3.882294647E-1,-1.003033420E0,1.039301067E0,1.495641958E0
8.328230375E0,-2.961044624E-2,-7.238127923E-1,-2.171930712E-1,7.562767794E-1
8.338171750E0,3.580549083E-1,-5.487418932E-1,-1.295151250E0,1.451460555E0
8.348113750E0,5.528526320E-1,-4.262395093E-1,-1.970394731E0,2.090402245E0
8.358055750E0,6.333181400E-1,-2.965821800E-1,-2.244194112E0,2.350629717E0
8.367996750E0,6.963539021E-1,-1.947760159E-1,-2.252966105E0,2.366157797E0
8.377938750E0,8.394208704E-1,-1.559563512E-1,-2.037419609E0,2.209078642E0
8.387880750E0,1.026981934E0,-1.878166598E-1,-1.778349364E0,2.062157475E0
8.397822750E0,1.192308740E0,-2.606829071E-1,-1.538904714E0,1.964124087E0
8.407763750E0,1.290258593E0,-3.994174540E-1,-1.219537396E0,1.819772788E0
8.417705750E0,1.350119463E0,-5.461191246E-1,-1.078060505E0,1.811983200E0
8.427647750E0,1.343604934E0,-6.657253826E-1,-1.178518009E0,1.907188822E0
8.437588750E0,1.226153521E0,-6.835351244E-1,-1.414112853E0,1.992583219E0
8.447530750E0,9.855230552E-1,-5.524083897E-1,-1.776597539E0,2.105400089E0
8.457472750E0,7.495614450E-1,-4.460799891E-1,-2.104827481E0,2.278404802E0
8.467414750E0,5.444196679E-1,-4.318332481E-1,-2.285584213E0,2.388884242E0
8.477355750E0,3.579193625E-1,-4.117887005E-1,-2.400461535E0,2.461684745E0
8.487297750E0,1.743263293E-1,-4.674585789E-1,-2.497790194E0,2.547128392E0
8.497239750E0,3.134334169E-2,-5.717846006E-1,-2.664251068E0,2.725097023E0
8.507180750E0,-1.540715743E-1,-6.337536845E-1,-2.922714956E0,2.994602561E0
8.517122750E0,-3.448421744E-1,-6.221604100E-1,-3.102889305E0,3.183382123E0
8.527064750E0,-5.099999599E-1,-6.269700372E-1,-3.072586110E0,3.177101949E0
8.537006750E0,-6.145357139E-1,-6.074900383E-1,-2.724202570E0,2.857967448E0
8.546947750E0,-6.389363641E-1,-5.943452051E-1,-2.225127511E0,2.390120989E0
8.556889750E0,-6.443055698E-1,-6.402461404E-1,-1.456955402E0,1.716905306E0
8.566831750E0,-5.045055871E-1,-7.095344764E-1,-8.066239840E-1,1.186847636E0
8.576772750E0,-3.394968691E-1,-7.835798147E-1,-4.214766598E-1,9.523119368E-1
8.586714750E0,-1.740706598E-1,-7.777907789E-1,-1.136342043E-1,8.050911891E-1
8.596656750E0,1.988250665E-2,-7.529737338E-1,-1.080729175E-1,7.609497443E-1
8.606598750E0,1.298701680E-1,-6.357320899E-1,-3.060502839E-1,7.174178189E-1
8.616539750E0,1.747177273E-1,-4.789857799E-1,-5.017829043E-1,7.153598707E-1
8.626481750E0,9.054822743E-2,-2.310278758E-1,-6.716638148E-1,7.160343155E-1
8.636423750E0,1.321748480E-2,1.130103064E-1,-8.733453923E-1,8.807259537E-1
8.646364750E0,-6.467078984E-2,4.046472037E-1,-9.415391296E-1,1.026848384E0
8.656306750E0,-9.206602757E-2,6.343667650E-1,-8.402092212E-1,1.056810712E0
8.666248750E0,2.337789908E-2,7.848387203E-1,-7.485055840E-1,1.084794429E0
8.676190750E0,2.765870413E-1,8.413213617E-1,-6.554038775E-1,1.101760531E0
8.686131750E0,4.201402421E-1,9.344932348E-1,-4.342118955E-1,1.112805194E0
8.696073750E0,4.769044635E-1,1.104928754E0,1.136154932E-1,1.208806808E0
8.706015750E0,5.754433496E-1,1.172404745E0,8.730179483E-1,1.570932294E0
8.715956750E0,4.211043383E-1,1.146031756E0,1.655885280E0,2.057346278E0
8.725898750E0,-1.084173185E-1,1.191860186E0,2.314298719E0,2.605429634E0
8.735840750E0,-8.132177429E-1,1.226863958E0,2.718348337E0,3.091267693E0
8.745781750E0,-1.464966672E0,1.091591839E0,2.911419305E0,3.437159069E0
8.755723750E0,-2.003256229E0,9.535311842E-1,2.891345814E0,3.644466745E0
8.765665750E0,-2.417932577E0,9.015298489E-1,2.757582570E0,3.776693745E0
8.775607750E0,-2.550901330E0,8.429948348E-1,2.669563848E0,3.787388154E0
8.785548750E0,-2.327522636E0,8.485900354E-1,2.612939996E0,3.600683559E0
8.795490750E0,-1.780076193E0,9.839542472E-1,2.482996738E0,3.209690019E0
8.805432750E0,-9.899317827E-1,1.132384939E0,2.197355576E0,2.662824086E0
8.815373750E0,-1.672759759E-1,1.282534128E0,1.777391590E0,2.198180136E0
8.825315750E0,5.597657219E-1,1.492648560E0,1.319483854E0,2.069390014E0
8.835257750E0,1.169817645E0,1.614425305E0,8.078846437E-1,2.151167121E0
8.845198750E0,1.493107274E0,1.655954569E0,4.246183687E-1,2.269769950E0
8.855140750E0,1.418357639E0,1.625641142E0,3.196123159E-1,2.180962986E0
8.865082750E0,8.858370915E-1,1.508382248E0,4.086034298E-1,1.796352171E0
8.875024750E0,1.300765016E-1,1.360341273E0,4.957462388E-1,1.453689309E0
8.884965750E0,-4.913073982E-1,1.132481126E0,5.110752994E-1,1.336074258E0
8.894907750E0,-9.119983383E-1,9.175871801E-1,4.072234869E-1,1.356295753E0
8.904849750E0,-1.121213469E0,7.846103865E-1,2.186420113E-1,1.385834561E0
8.914790750E0,-1.069010989E0,6.644939590E-1,-1.474650246E-1,1.267313162E0
8.924732750E0,-8.098849761E-1,6.017474878E-1,-6.632870936E-1,1.207461586E0
8.934674750E0,-5.472159161E-1,5.809235063E-1,-1.086793907E0,1.348346534E0
8.944616750E0,-3.718987030E-1,5.432908264E-1,-1.277294438E0,1.436995007E0
8.954557750E0,-2.037153853E-1,4.568040749E-1,-1.324725298E0,1.416003897E0
8.964499750E0,-1.029987037E-2,3.249198335E-1,-1.164088250E0,1.208627503E0
8.974441750E0,1.436133906E-1,9.817065775E-2,-9.090911758E-1,9.255857874E-1
8.984382750E0,1.669450966E-1,-9.901645750E-2,-6.448777199E-1,6.734554163E-1
8.994324750E0,9.850782283E-2,-2.255569285E-1,-4.688355982E-1,5.295153797E-1
9.004266750E0,-2.983863384E-2,-3.137779641E-1,-5.488494819E-1,6.329160360E-1
9.014208750E0,-1.347536894E-1,-3.730836412E-1,-8.125290871E-1,9.041866386E-1
9.024149750E0,-2.005103803E-1,-4.697638437E-1,-1.268642313E0,1.367602209E0
9.034091750E0,-2.879380218E-1,-5.759846556E-1,-1.735474071E0,1.851090727E0
9.044033750E0,-4.446898866E-1,-7.290621302E-1,-1.965649715E0,2.143142433E0
9.053974750E0,-6.183136730E-1,-9.466510579E-1,-1.896214614E0,2.207734107E0
9.063916750E0,-8.237305981E-1,-1.158181686E0,-1.666787998E0,2.190456378E0
9.073858750E0,-1.050536126E0,-1.286989707E0,-1.586157233E0,2.296924776E0
9.083799750E0,-1.223865652E0,-1.305873874E0,-1.826843247E0,2.557442074E0
9.093741750E0,-1.386583869E0,-1.180563073E0,-2.258932604E0,2.901572074E0
9.103683750E0,-1.472821383E0,-9.428582615E-1,-2.649067018E0,3.174230709E0
9.113624750E0,-1.427234297E0,-6.868835324E-1,-2.951960390E0,3.350056249E0
9.123566750E0,-1.320708261E0,-4.813960022E-1,-3.027685926E0,3.338097435E0
9.133508750E0,-1.125551956E0,-3.197821775E-1,-2.811922499E0,3.045658547E0
9.143450750E0,-8.004193573E-1,-1.983878410E-1,-2.482787992E0,2.616154640E0
9.153391750E0,-4.636065795E-1,-4.398041725E-2,-2.001901283E0,2.055352545E0
9.163333750E0,-2.134034177E-1,1.581376550E-1,-1.451056731E0,1.475165812E0
9.173275750E0,-9.643315762E-2,3.285711274E-1,-9.760195756E-1,1.034346437E0
9.183216750E0,-6.959948100E-2,4.423541433E-1,-5.183615148E-1,6.849963035E-1
9.193158750E0,-2.326132753E-1,5.851261926E-1,-6.355046332E-2,6.328666988E-1
9.203100750E0,-4.955700184E-1,6.831348825E-1,4.645104128E-1,9.633446083E-1
9.213041750E0,-6.683670084E-1,6.332505316E-1,9.766557527E-1,1.342228428E0
9.222983750E0,-7.488754935E-1,5.402891582E-1,1.446556129E0,1.716173509E0
9.232925750E0,-7.692724089E-1,5.126379678E-1,1.608519325E0,1.855239107E0
9.242867750E0,-6.569343862E-1,4.864023882E-1,1.491683185E0,1.700961139E0
9.252808750E0,-4.888454280E-1,4.342341149E-1,1.194969150E0,1.362160192E0
9.262750750E0,-4.834247302E-1,4.519035235E-1,1.023098432E0,1.218460778E0
9.272692750E0,-6.359428820E-1,5.089416504E-1,1.252753674E0,1.494267955E0
9.282633750E0,-7.294174947E-1,5.942197824E-1,1.695398424E0,1.938948903E0
9.292575750E0,-5.403172249E-1,4.327132541E-1,2.387300622E0,2.485636281E0
9.302517750E0,-2.043824796E-1,1.415634298E-1,3.122777440E0,3.132658830E0
9.312458750E0,-1.487268537E-2,4.007038414E-2,3.583482485E0,3.583737372E0
9.322400750E0,1.499897792E-1,-6.052072853E-2,3.666066220E0,3.669632300E0
9.332342750E0,2.483948372E-1,-2.710125983E-1,3.431747239E0,3.451381888E0
9.342284667E0,1.567633400E-1,-3.313105479E-1,3.000211614E0,3.022517353E0
9.352225667E0,-4.001688212E-5,-2.866565314E-1,2.492344097E0,2.508774814E0
9.362167667E0,-4.222120933E-2,-2.318266055E-1,1.930844749E0,1.945170339E0
9.372109667E0,1.644047007E-2,-1.812552068E-1,1.573367034E0,1.583858441E0
9.382050667E0,2.068440112E-1,-1.711716834E-1,1.414440297E0,1.439696337E0
9.391992667E0,4.537483931E-1,-2.081550300E-1,1.525908692E0,1.605494771E0
9.401934667E0,7.189951251E-1,-3.608001029E-1,1.807539834E0,1.978466820E0
9.411875667E0,8.885076611E-1,-5.649304944E-1,2.188423369E0,2.428536425E0
9.421817667E0,9.360874781E-1,-6.730881965E-1,2.539033529E0,2.788547785E0
9.431759667E0,8.997046405E-1,-7.416473848E-1,2.551286370E0,2.805097400E0
9.441700667E0,7.484766403E-1,-7.725458264E-1,2.348921837E0,2.583501138E0
9.451642667E0,5.409389301E-1,-7.679385129E-1,1.986768104E0,2.197633269E0
9.461584667E0,4.632251948E-1,-7.738482937E-1,1.540510359E0,1.785102499E0
9.471526667E0,5.392157556E-1,-8.110053027E-1,1.158538658E0,1.513504230E0
9.481467667E0,7.171933787E-1,-8.636565560E-1,9.378618157E-1,1.462823904E0
9.491409667E0,9.559169944E-1,-9.193919232E-1,8.158549833E-1,1.557137811E0
9.501351667E0,1.144131338E0,-9.423241183E-1,6.944773114E-1,1.636859798E0
9.511292667E0,1.219007858E0,-8.665634993E-1,5.137357825E-1,1.581403462E0
9.521234667E0,1.210229579E0,-7.079934427E-1,2.410315847E-1,1.422675850E0
9.531176667E0,1.172233495E0,-5.037415753E-1,-1.805813152E-1,1.288602558E0
9.541117667E0,1.139896492E0,-2.359567863E-1,-5.782896280E-1,1.299791718E0
9.551059667E0,1.178933965E0,1.520334542E-2,-9.762979031E-1,1.530775631E0
9.561001667E0,1.208261114E0,1.700715297E-1,-1.351314926E0,1.820678795E0
9.570943667E0,1.158207633E0,2.807400262E-1,-1.648576845E0,2.034223561E0
9.580884667E0,1.049791410E0,3.548064145E-1,-1.855796905E0,2.161465186E0
9.590826667E0,9.613465726E-1,3.464285240E-1,-1.968028947E0,2.217507135E0
9.600768667E0,8.593262543E-1,2.906428707E-1,-2.015351633E0,2.210103412E0
9.610709667E0,7.590983268E-1,1.522071165E-1,-2.056303777E0,2.197221541E0
9.620651667E0,6.758192117E-1,-3.245847881E-2,-2.157029668E0,2.260655248E0
9.630593667E0,6.036822584E-1,-1.490928894E-1,-2.243122317E0,2.327715337E0
9.640534667E0,5.652007820E-1,-2.249635823E-1,-2.368216479E0,2.445099145E0
9.650476667E0,5.944753057E-1,-2.623714368E-1,-2.303536334E0,2.393432536E0
9.660418667E0,6.601551788E-1,-2.309118086E-1,-2.109923329E0,2.222813888E0
9.670359667E0,7.335204859E-1,-2.131216550E-1,-1.782808451E0,1.939556423E0
9.680301667E0,7.341762511E-1,-1.857198483E-1,-1.300772763E0,1.505163251E0
9.690243667E0,6.211952540E-1,-1.691251579E-1,-6.686823195E-1,9.282364499E-1
9.700184667E0,4.037631047E-1,-1.250403678E-1,1.621257484E-2,4.229924182E-1
9.710126667E0,1.812856854E-1,-1.172045141E-2,6.741219842E-1,6.981706943E-1
9.720068667E0,1.523030839E-1,3.950934380E-2,1.264314204E0,1.274067355E0
9.730009667E0,3.452332800E-1,-3.177757055E-2,1.508353597E0,1.547684207E0
9.739951667E0,4.935462970E-1,-4.318344176E-2,1.312611036E0,1.402996967E0
9.749893667E0,4.909965456E-1,9.306983918E-2,8.163116509E-1,9.571333836E-1
9.759835667E0,3.771639745E-1,3.435967174E-1,1.950210142E-1,5.462092675E-1
9.769776667E0,2.463932622E-1,6.094766298E-1,-2.760248315E-1,7.129944667E-1
9.779718667E0,7.664954200E-2,8.266223386E-1,-5.194602066E-1,9.792949245E-1
9.789660667E0,-7.899917252E-2,9.631595019E-1,-5.226919627E-1,1.098691942E0
9.799601667E0,-1.296197244E-1,1.035543939E0,-3.568713588E-1,1.102954980E0
9.809543667E0,-3.004332293E-2,9.975200799E-1,-1.682126999E-1,1.012049615E0
9.819485667E0,2.377401140E-1,8.686375067E-1,1.794984108E-1,9.182979687E-1
9.829426667E0,5.507996015E-1,7.035428345E-1,4.706967670E-1,1.009905029E0
9.839368667E0,7.407084681E-1,4.824131253E-1,8.600687045E-1,1.233324627E0
9.849310667E0,7.902525841E-1,3.299782598E-1,1.281676342E0,1.541453549E0
9.859251667E0,7.383055548E-1,2.484388375E-1,1.462930087E0,1.657401999E0
9.869193667E0,5.836997643E-1,2.568351468E-1,1.342214904E0,1.486004898E0
9.879135667E0,2.331689069E-1,3.865948024E-1,1.001101792E0,1.098193097E0
9.889077667E0,-1.674649872E-1,5.718050659E-1,6.151686019E-1,8.564099276E-1
9.899018667E0,-4.902842816E-1,6.551112244E-1,4.281916022E-1,9.235244671E-1
9.908960667E0,-8.346415756E-1,6.830834270E-1,6.205632430E-1,1.244318394E0
9.918902667E0,-1.080352614E0,5.614876539E-1,1.125502474E0,1.658066939E0
9.928843667E0,-1.066315642E0,2.838381734E-1,1.674434987E0,2.005324333E0
9.938785667E0,-6.945559564E-1,-1.304987437E-1,2.034821107E0,2.154050797E0
9.948727667E0,-1.651862542E-1,-5.553431073E-1,2.251172764E0,2.324536788E0
9.958668667E0,2.579915068E-1,-8.584952188E-1,2.404763916E0,2.566410558E0
9.968610667E0,6.485029936E-1,-1.150117498E0,2.528797978E0,2.852743523E0
9.978552667E0,9.764208408E-1,-1.458720676E0,2.615228012E0,3.149711292E0
9.988493667E0,9.709772292E-1,-1.616448441E0,2.720690147E0,3.310265431E0
9.998435667E0,6.740012392E-1,-1.553083627E0,2.746661140E0,3.226529690E0
1.000837767E1,2.809976692E-1,-1.432416100E0,2.698647314E0,3.068138344E0
1.001831867E1,-1.569242846E-1,-1.273317747E0,2.330504862E0,2.660303785E0
1.002826067E1,-6.093185357E-1,-1.029146500E0,1.650657284E0,2.038401596E0
1.003820267E1,-9.072289838E-1,-8.379232523E-1,9.040052676E-1,1.530491859E0
1.004814367E1,-1.022753885E0,-7.619810772E-1,6.955672324E-2,1.277293549E0
1.005808567E1,-9.296138064E-1,-7.344675887E-1,-7.664729083E-1,1.411065267E0
1.006802767E1,-6.273685250E-1,-7.646301582E-1,-1.455685387E0,1.759906387E0
1.007796967E1,-2.494494922E-1,-7.701212785E-1,-1.818646621E0,1.990675102E0
1.008791067E1,1.238553565E-1,-7.191075379E-1,-1.873476546E0,2.010564640E0
1.009785267E1,3.751659078E-1,-6.406867281E-1,-1.601402094E0,1.765139543E0
1.010779467E1,4.454726095E-1,-6.382864460E-1,-1.120503105E0,1.364324976E0
1.011773567E1,3.812792449E-1,-7.361398923E-1,-6.821472877E-1,1.073592439E0
1.012767767E1,1.482299866E-1,-7.855465257E-1,-4.642695075E-1,9.244466716E-1
1.013761967E1,-2.429658802E-1,-7.053575179E-1,-5.741082841E-1,9.413617630E-1
1.014756067E1,-5.888575932E-1,-6.249217576E-1,-9.094507796E-1,1.250752249E0
1.015750267E1,-7.806129375E-1,-5.464746353E-1,-1.309301512E0,1.619339845E0
1.016744467E1,-8.183228738E-1,-4.099649540E-1,-1.663908244E0,1.899029814E0
1.017738567E1,-7.049884124E-1,-2.604197824E-1,-1.839942180E0,1.987514616E0
1.018732767E1,-4.037990285E-1,-1.541235414E-1,-1.847996719E0,1.897867118E0
1.019726967E1,-2.534482934E-2,-1.377223939E-1,-1.704822966E0,1.710564575E0
1.020721067E1,2.145541863E-1,-1.454626456E-1,-1.418819277E0,1.442304066E0
1.021715267E1,3.081247298E-1,-1.265928036E-1,-1.179864623E0,1.225988220E0
1.022709467E1,3.556578422E-1,-1.088128826E-1,-1.190007203E0,1.246775797E0
1.023703567E1,4.036980544E-1,-5.660426348E-2,-1.480314444E0,1.535417537E0
1.024697767E1,3.397122659E-1,1.206897470E-1,-1.875551723E0,1.909886045E0
1.025691967E1,1.601060105E-1,4.553373009E-1,-2.184427382E0,2.237116219E0
1.026686067E1,-5.936502635E-2,7.523977831E-1,-2.342058960E0,2.460663895E0
1.027680267E1,-2.807964153E-1,1.017979780E0,-2.271705261E0,2.505149547E0
1.028674467E1,-4.475891920E-1,1.241753892E0,-1.942317570E0,2.348379518E0
1.029668567E1,-5.250658957E-1,1.397413205E0,-1.411859921E0,2.054703457E0
1.030662767E1,-4.823485136E-1,1.349856046E0,-7.827924871E-1,1.633259168E0
1.031656967E1,-3.489882522E-1,1.205219612E0,-2.808914691E-1,1.285786580E0
1.032651167E1,-3.025383731E-1,1.110507582E0,-8.435602605E-2,1.154067804E0
1.033645267E1,-3.212111639E-1,1.131898744E0,-1.373493415E-1,1.184582719E0
1.034639492E1,-3.592026436E-1,1.214569310E0,-3.254998773E-1,1.307729069E0
1.035633692E1,-2.921990888E-1,1.354732331E0,-4.981845278E-1,1.472707649E0
1.036627792E1,-1.634002221E-1,1.439436559E0,-5.653058857E-1,1.555071698E0
1.037621992E1,-4.615835890E-2,1.460497645E0,-3.439063275E-1,1.501151401E0
1.038616192E1,-9.673777929E-2,1.420117359E0,3.970259428E-4,1.423408468E0
1.039610292E1,-2.177627362E-1,1.352224461E0,3.772635233E-1,1.420654556E0
1.040604492E1,-2.221276096E-1,1.149901151E0,4.475119722E-1,1.253746504E0
1.041598692E1,-1.994972771E-1,8.575327671E-1,8.995356560E-3,8.804785781E-1
1.042592792E1,-2.055473180E-1,6.217975903E-1,-5.713326108E-1,8.690816391E-1
1.043586992E1,-3.118543033E-1,5.358052209E-1,-1.274360890E0,1.417157726E0
1.044581192E1,-3.902487275E-1,5.102789086E-1,-1.740964022E0,1.855703198E0
1.045575292E1,-4.019222550E-1,4.515412885E-1,-1.733841528E0,1.836201917E0
1.046569492E1,-3.297394010E-1,3.000203428E-1,-1.158526379E0,1.241339458E0
1.047563692E1,-1.842473732E-1,4.306006551E-2,-4.275168335E-1,4.675167449E-1
1.048557792E1,-1.256864852E-1,-1.434310305E-1,4.926992548E-1,5.283200817E-1
1.049551992E1,-1.290016372E-1,-1.888983947E-1,1.521056088E0,1.538159826E0
1.050546192E1,-5.202003728E-2,-3.895382908E-1,2.149927055E0,2.185550848E0
1.051540292E1,8.173202408E-2,-6.520952305E-1,2.486198673E0,2.571593311E0
1.052534492E1,1.055601496E-1,-6.629839155E-1,2.537679899E0,2.624978073E0
1.053528692E1,2.531489159E-1,-4.745974445E-1,2.437587261E0,2.496228909E0
1.054522792E1,5.587368312E-1,-2.996899751E-1,2.344910647E0,2.429116480E0
1.055516992E1,8.443731697E-1,-2.009904367E-1,2.498828074E0,2.645279749E0
1.056511192E1,1.104340451E0,-1.790981689E-1,2.965043535E0,3.169089325E0
1.057505292E1,1.173496274E0,-2.187373209E-1,3.538294618E0,3.734229281E0
1.058499492E1,1.039512005E0,-3.974600986E-1,4.058859363E0,4.208669513E0
1.059493692E1,7.820924293E-1,-6.493771523E-1,4.325675415E0,4.443515168E0
1.060487792E1,4.671731617E-1,-9.860414109E-1,4.211307385E0,4.350360711E0
1.061481992E1,1.042216671E-1,-1.279658468E0,3.779964718E0,3.992057267E0
1.062476192E1,-2.373699121E-1,-1.411922778E0,3.157913944E0,3.467317534E0
1.063470292E1,-4.536376615E-1,-1.428835557E0,2.461110025E0,2.881739185E0
1.064464492E1,-4.827409349E-1,-1.342132166E0,1.674200513E0,2.199387397E0
1.065458692E1,-3.422065419E-1,-1.217258152E0,8.222149998E-1,1.508263979E0
1.066452792E1,-4.509303275E-2,-1.050346165E0,-4.542818785E-2,1.052294715E0
1.067446992E1,3.489142484E-1,-8.527620238E-1,-8.234253734E-1,1.235707719E0
1.068441192E1,7.217840277E-1,-6.775288644E-1,-1.418316416E0,1.729635511E0
1.069435292E1,9.908520614E-1,-5.803358611E-1,-1.814861133E0,2.147626236E0
1.070429492E1,9.962211940E-1,-5.122900584E-1,-1.823313868E0,2.139946549E0
1.071423692E1,6.995608807E-1,-5.092028747E-1,-1.233546740E0,1.506754975E0
1.072417792E1,2.843583929E-1,-5.979291098E-1,-5.505831814E-1,8.611159943E-1
1.073411992E1,-8.951802112E-2,-7.061464535E-1,-2.238255680E-2,7.121497516E-1
1.074406192E1,-2.829276706E-1,-8.298907860E-1,2.359807599E-1,9.079943295E-1
1.075400292E1,-3.585701211E-1,-8.848388256E-1,1.983638674E-1,9.751207633E-1
1.076394492E1,-2.436263598E-1,-8.608802980E-1,-1.585858440E-1,9.086353287E-1
1.077388692E1,-2.825645037E-2,-8.703222357E-1,-8.337398618E-1,1.205562681E0
1.078382792E1,1.237187509E-1,-7.475837705E-1,-1.594927472E0,1.765780695E0
1.079376992E1,1.706468958E-1,-3.849239606E-1,-2.353991373E0,2.391351543E0
1.080371192E1,2.664144210E-1,3.808876276E-2,-2.840807160E0,2.853526365E0
1.081365292E1,3.866580985E-1,3.572259924E-1,-2.900773864E0,2.948152626E0
1.082359492E1,4.587054433E-1,6.028897414E-1,-2.593288089E0,2.701671674E0
1.083353692E1,4.743631905E-1,8.554583211E-1,-2.067115279E0,2.286874494E0
1.084347892E1,5.119382022E-1,1.011784509E0,-1.554572913E0,1.924184387E0
1.085341992E1,6.489074747E-1,1.054995432E0,-1.173284166E0,1.706075030E0
1.086336192E1,8.276504253E-1,1.034276262E0,-1.040489806E0,1.684444018E0
1.087330292E1,1.023630675E0,1.083355598E0,-1.106998376E0,1.856589485E0
1.088324492E1,1.177582674E0,1.098852766E0,-1.316465521E0,2.080206678E0
1.089318692E1,1.292434049E0,1.067689884E0,-1.439324293E0,2.209525261E0
1.090312792E1,1.252014002E0,1.085987576E0,-1.532093877E0,2.257037821E0
1.091306992E1,1.050271978E0,1.140932107E0,-1.499797951E0,2.157357457E0
1.092301192E1,7.479899327E-1,1.163987094E0,-1.303796943E0,1.901115821E0
1.093295292E1,4.090568083E-1,1.146405978E0,-9.983079922E-1,1.574227743E0
1.094289492E1,1.037527022E-1,1.094290914E0,-6.175530964E-1,1.260796992E0
1.095283692E1,-2.092823732E-1,1.001731537E0,-1.823424965E-1,1.039477739E0
1.096277792E1,-3.996386249E-1,8.733611798E-1,3.362926680E-1,1.017626424E0
1.097271992E1,-4.608230124E-1,7.055101302E-1,7.876252109E-1,1.153453885E0
1.098266192E1,-4.844595777E-1,5.934268999E-1,1.165321428E0,1.394571834E0
1.099260392E1,-4.610642101E-1,6.116941863E-1,1.531936002E0,1.712769073E0
1.100254492E1,-3.792373241E-1,6.673245960E-1,1.862256909E0,2.014235304E0
1.101248692E1,-2.495702007E-1,6.794131297E-1,2.231694519E0,2.346134675E0
1.102242792E1,-1.247278342E-1,7.256739610E-1,2.558509435E0,2.662354270E0
1.103236992E1,4.266731534E-3,7.234002712E-1,2.761041198E0,2.854238016E0
1.104231192E1,1.461457466E-1,6.213549560E-1,2.829422631E0,2.900529776E0
1.105225292E1,2.988470989E-1,5.205732241E-1,2.624577125E0,2.692343060E0
1.106219492E1,3.565133630E-1,4.948229635E-1,2.265520077E0,2.346174069E0
1.107213692E1,2.381769010E-1,6.545630479E-1,1.846698638E0,1.973696248E0
1.108207792E1,1.775414208E-1,9.585247064E-1,1.405629128E0,1.710579964E0
1.109201992E1,3.059519045E-1,1.150929092E0,1.177966617E0,1.675067071E0
1.110196192E1,6.045163637E-1,1.211454790E0,1.095322071E0,1.741491654E0
1.111190292E1,1.028181636E0,1.193864027E0,1.125966159E0,1.936561019E0
1.112184492E1,1.490706408E0,1.063788037E0,1.329994808E0,2.263346366E0
1.113178692E1,1.800284024E0,9.673613110E-1,1.441402978E0,2.500890445E0
1.114172792E1,1.902475082E0,8.657636002E-1,1.540752434E0,2.596704856E0
1.115166992E1,1.758519410E0,6.747227857E-1,1.763399203E0,2.580158542E0
1.116161192E1,1.322431289E0,4.679722568E-1,2.083895618E0,2.512059612E0
1.117155292E1,7.206324917E-1,1.739710379E-1,2.459552327E0,2.568846971E0
1.118149492E1,2.202435637E-1,-2.052437013E-1,2.855918119E0,2.871741720E0
1.119143692E1,-1.011234286E-1,-5.606140798E-1,2.958308128E0,3.012656813E0
1.120137792E1,-2.742679625E-1,-8.036588609E-1,2.735959566E0,2.864710322E0
1.121131992E1,-3.135383745E-1,-9.914366367E-1,2.139962230E0,2.379220726E0
1.122126192E1,-3.280835427E-1,-1.055810680E0,1.296818292E0,1.704145735E0
1.123120292E1,-3.575645462E-1,-9.175766551E-1,3.542173076E-1,1.046551109E0
1.124114492E1,-2.474134552E-1,-7.427612793E-1,-5.037054688E-1,9.309279968E-1
1.125108692E1,-3.075840086E-2,-6.424525872E-1,-1.137595101E0,1.306833585E0
1.126102792E1,1.840535380E-1,-5.833626723E-1,-1.577305718E0,1.691768613E0
1.127096992E1,3.031304037E-1,-5.781279525E-1,-1.773777426E0,1.890081038E0
1.128091192E1,3.286473970E-1,-6.182506692E-1,-1.752308205E0,1.887015380E0
1.129085292E1,1.368584678E-1,-7.330420375E-1,-1.514329451E0,1.687979430E0
1.130079492E1,-1.834031083E-1,-8.965032899E-1,-1.189461073E0,1.500723990E0
1.131073692E1,-4.467965654E-1,-1.101644665E0,-1.055204324E0,1.589561041E0
1.132067792E1,-5.695834528E-1,-1.296470090E0,-1.141929057E0,1.819137701E0
1.133061992E1,-6.908787156E-1,-1.335337409E0,-1.342405524E0,2.015562449E0
1.134056125E1,-7.876867528E-1,-1.284334194E0,-1.703207381E0,2.273956931E0
1.135050225E1,-8.174653796E-1,-1.226123408E0,-2.014468119E0,2.495938713E0
1.136044425E1,-7.756190499E-1,-1.136979097E0,-2.105109901E0,2.515113133E0
1.137038625E1,-7.142608539E-1,-1.031164374E0,-2.063793476E0,2.415100835E0
1.138032725E1,-6.767672646E-1,-9.564027518E-1,-1.824885600E0,2.168623436E0
1.139026925E1,-6.260849880E-1,-8.621251702E-1,-1.320724048E0,1.696924934E0
1.140021125E1,-4.022010941E-1,-7.687936682E-1,-9.104605937E-1,1.257675601E0
1.141015225E1,5.993158501E-2,-8.014468592E-1,-8.274289620E-1,1.153493628E0
1.142009425E1,6.763917272E-1,-8.826573756E-1,-1.034406947E0,1.518745385E0
1.143003625E1,1.226982364E0,-8.227795485E-1,-1.468276196E0,2.082855467E0
1.143997725E1,1.638895025E0,-6.974985677E-1,-1.831766018E0,2.554965343E0
1.144991925E1,2.027473788E0,-5.077470642E-1,-2.025771371E0,2.910705531E0
1.145986125E1,2.213863727E0,-2.561214942E-1,-2.234070827E0,3.155608227E0
1.146980225E1,2.030133979E0,5.655953228E-2,-2.255347091E0,3.035001393E0
1.147974425E1,1.525077657E0,3.955255473E-1,-2.105196440E0,2.629477965E0
1.148968625E1,9.923276793E-1,6.786199549E-1,-2.055316767E0,2.381085105E0
1.149962725E1,5.416712938E-1,9.170606384E-1,-1.865647709E0,2.148266599E0
1.150956925E1,1.661391310E-1,1.101228051E0,-1.413844466E0,1.799794878E0
1.151951125E1,-1.686657129E-1,1.167270013E0,-6.320752412E-1,1.338090623E0
1.152945225E1,-5.131376123E-1,1.027437066E0,4.864018035E-1,1.247206418E0
1.153939425E1,-8.238017149E-1,7.519405308E-1,1.745174602E0,2.071158665E0
1.154933625E1,-1.040323380E0,4.539731455E-1,2.741125581E0,2.966839025E0
1.155927725E1,-1.275759837E0,2.415601730E-1,3.225781406E0,3.477294948E0
1.156921925E1,-1.548553789E0,1.245866239E-1,3.301266037E0,3.648547397E0
1.157916125E1,-1.727987881E0,1.511777142E-1,2.921656610E0,3.397774885E0
1.158910225E1,-1.681099789E0,3.438882011E-1,2.394730679E0,2.946029637E0
1.159904425E1,-1.475802001E0,5.372526991E-1,2.192915785E0,2.697315638E0
1.160898525E1,-1.127876590E0,6.675342187E-1,2.240230284E0,2.595445870E0
1.161892725E1,-4.671862449E-1,5.925732064E-1,2.348609596E0,2.466854886E0
1.162886925E1,2.534523864E-1,4.224929059E-1,2.605499999E0,2.651672795E0
1.163881025E1,6.230800308E-1,4.074947977E-1,2.918302647E0,3.011772083E0
1.164875225E1,7.705995807E-1,4.102368495E-1,3.217502334E0,3.333832517E0
1.165869425E1,8.487005478E-1,1.642266530E-1,3.433366333E0,3.540517955E0
1.166863525E1,7.490161921E-1,-1.167817605E-1,3.333394732E0,3.418506059E0
1.167857725E1,5.160284758E-1,-1.979840907E-1,2.714239499E0,2.769942083E0
1.168851925E1,3.068303025E-1,-2.124188197E-1,1.920122709E0,1.956051586E0
1.169846025E1,2.045950989E-1,-2.989552724E-1,1.065138159E0,1.125056757E0
1.170840225E1,2.046749134E-1,-4.171757403E-1,4.132496274E-1,6.218542217E-1
1.171834425E1,2.227262914E-1,-5.768702164E-1,9.142589450E-2,6.250959460E-1
1.172828525E1,2.960797580E-1,-7.497542569E-1,7.347026467E-3,8.061319046E-1
1.173822725E1,3.811761877E-1,-9.082725656E-1,-3.225382626E-2,9.855428194E-1
1.174816925E1,4.679301569E-1,-9.422644767E-1,-1.476533049E-1,1.062366450E0
1.175811025E1,5.991950320E-1,-8.813250875E-1,-4.156873316E-1,1.143925065E0
1.176805225E1,7.992142461E-1,-7.527357522E-1,-8.925178277E-1,1.414900207E0
1.177799425E1,9.657588816E-1,-5.868224698E-1,-1.413355638E0,1.809592493E0
1.178793525E1,1.058152490E0,-4.216444749E-1,-1.708728322E0,2.053587893E0
1.179787725E1,1.026749288E0,-3.148535594E-1,-1.814126138E0,2.108174686E0
1.180781925E1,8.103516570E-1,-2.210235822E-1,-1.772126758E0,1.961110521E0
1.181776025E1,3.988241078E-1,-2.138458326E-1,-1.493870628E0,1.560910043E0
1.182770225E1,-1.395297682E-1,-3.086812386E-1,-1.078701945E0,1.130641654E0
1.183764425E1,-6.132474261E-1,-3.723544934E-1,-7.350616658E-1,1.027149418E0
1.184758525E1,-8.900440901E-1,-4.695980752E-1,-4.208206022E-1,1.090775327E0
1.185752725E1,-9.147953539E-1,-5.686402604E-1,-2.302159899E-1,1.101454351E0
1.186746925E1,-7.634533330E-1,-5.963522619E-1,-1.452547771E-1,9.795896907E-1
1.187741025E1,-5.647633372E-1,-5.642241508E-1,-1.919629204E-1,8.210702054E-1
1.188735225E1,-3.694517163E-1,-4.207033655E-1,-4.032707691E-1,6.900095693E-1
1.189729325E1,-1.453403657E-1,-2.141384858E-1,-7.574869072E-1,8.004783118E-1
1.190723525E1,8.203197710E-2,1.941421777E-2,-1.187771813E0,1.190759437E0
1.191717725E1,2.796407497E-1,3.270374027E-1,-1.453454674E0,1.515810971E0
1.192711825E1,4.120381574E-1,5.843412039E-1,-1.514708936E0,1.674984551E0
1.193706025E1,4.227786154E-1,6.756209180E-1,-1.488147374E0,1.688131508E0
1.194700225E1,2.449505349E-1,7.362363714E-1,-1.472248210E0,1.664199372E0
1.195694325E1,-2.340216503E-2,8.254034865E-1,-1.701046250E0,1.890872000E0
1.196688525E1,-2.186289281E-1,8.224997592E-1,-2.137139779E0,2.300363210E0
1.197682725E1,-3.431773990E-1,8.021494022E-1,-2.651496536E0,2.791352409E0
1.198676825E1,-4.655532637E-1,8.433310497E-1,-3.060064298E0,3.208105455E0
1.199671025E1,-5.284203337E-1,8.590723389E-1,-3.177103921E0,3.333350065E0
1.200665225E1,-5.176212573E-1,7.843791291E-1,-2.944871226E0,3.091188917E0
1.201659325E1,-5.589971785E-1,7.019722724E-1,-2.296065931E0,2.465189988E0
1.202653525E1,-7.319225150E-1,6.859117252E-1,-1.437788229E0,1.753117353E0
1.203647725E1,-1.013223874E0,7.221311331E-1,-7.011004525E-1,1.428158898E0
1.204641825E1,-1.432368445E0,7.046751478E-1,-3.605217755E-2,1.596729841E0
1.205636025E1,-1.903430078E0,7.228927329E-1,4.542181438E-1,2.086128972E0
1.206630225E1,-2.340910129E0,7.962223721E-1,7.604526150E-1,2.586912924E0
1.207624325E1,-2.598968367E0,8.593974441E-1,7.111079621E-1,2.828228257E0
1.208618525E1,-2.663363168E0,9.078846028E-1,5.601427943E-1,2.869062175E0
1.209612625E1,-2.496305001E0,1.007196929E0,4.159498715E-1,2.723783877E0
1.210606825E1,-2.066566810E0,1.177060006E0,2.832180762E-1,2.395074345E0
1.211601025E1,-1.371116960E0,1.317462763E0,3.874850410E-1,1.940570666E0
1.212595125E1,-5.878520914E-1,1.351292122E0,6.307251191E-1,1.602926903E0
1.213589325E1,1.073447198E-1,1.327870223E0,9.470436984E-1,1.634519496E0
1.214583525E1,7.192727217E-1,1.278994809E0,1.326373628E0,1.977990892E0
1.215577625E1,1.199465294E0,1.143996340E0,1.651716800E0,2.340002779E0
1.216571825E1,1.543941213E0,9.307618341E-1,1.933050903E0,2.643247596E0
1.217566025E1,1.621712982E0,7.538674808E-1,2.182148137E0,2.821354226E0
1.218560125E1,1.471029358E0,5.854948595E-1,2.221012241E0,2.727567960E0
1.219554325E1,1.217258883E0,4.482457978E-1,2.101868205E0,2.469917698E0
1.220548525E1,9.442799389E-1,3.711452892E-1,1.809051924E0,2.074146160E0
1.221542625E1,6.243871759E-1,3.403453732E-1,1.583563993E0,1.735905884E0
1.222536825E1,3.127178639E-1,3.258989498E-1,1.531453022E0,1.596668703E0
1.223531025E1,5.514282502E-2,2.127477255E-1,1.891389492E0,1.904115683E0
1.224525125E1,-1.570461260E-1,-7.205231488E-3,2.545529786E0,2.550379833E0
1.225519325E1,-2.470983633E-1,-3.689014202E-1,3.184114732E0,3.214923403E0
1.226513525E1,-2.426666124E-1,-7.842525369E-1,3.595134231E0,3.687672609E0
1.227507625E1,-3.046234171E-1,-1.088466503E0,3.676052095E0,3.845895703E0
1.228501825E1,-3.679296861E-1,-1.215644320E0,3.175081369E0,3.419693709E0
1.229495925E1,-3.848703855E-1,-1.273890482E0,2.253160817E0,2.616802599E0
1.230490125E1,-3.338552561E-1,-1.260137831E0,1.194955702E0,1.768424670E0
1.231484325E1,-2.404461323E-1,-1.100208004E0,1.306010699E-1,1.133723350E0
1.232478425E1,2.582576282E-2,-9.632472101E-1,-5.997372150E-1,1.134987614E0
1.233472625E1,3.450845049E-1,-8.441490752E-1,-8.719356287E-1,1.261722124E0
1.234466887E1,5.120172858E-1,-7.435717034E-1,-8.281756514E-1,1.225126724E0
1.235460988E1,6.293501464E-1,-7.549591559E-1,-6.224384451E-1,1.163389252E0
1.236455187E1,7.216702994E-1,-8.726884577E-1,-3.494179130E-1,1.185110140E0
1.237449387E1,7.733556658E-1,-1.022100897E0,-1.084266740E-1,1.286283629E0
1.238443487E1,7.147131360E-1,-1.183163914E0,-5.492582023E-2,1.383368556E0
1.239437688E1,5.699942563E-1,-1.301100792E0,-2.282723755E-1,1.438702541E0
1.240431887E1,4.419661805E-1,-1.410660657E0,-5.464176250E-1,1.576029763E0
1.241425987E1,2.759729375E-1,-1.494912602E0,-7.444224733E-1,1.692657546E0
1.242420187E1,1.016004883E-1,-1.507940784E0,-7.890612870E-1,1.704941577E0
1.243414288E1,6.083223894E-3,-1.512234394E0,-8.485625535E-1,1.734055442E0
1.244408487E1,-3.755958974E-3,-1.502722436E0,-1.011992816E0,1.811716944E0
1.245402687E1,5.090264350E-2,-1.468184395E0,-1.286589757E0,1.952810718E0
1.246396787E1,1.406966532E-1,-1.329512413E0,-1.703248896E0,2.165284186E0
1.247390987E1,2.317087841E-1,-1.158592452E0,-2.124853610E0,2.431260639E0
1.248385187E1,2.728113480E-1,-1.010611996E0,-2.276638557E0,2.505762510E0
1.249379287E1,2.453811823E-1,-9.419270924E-1,-2.281116355E0,2.480106933E0
1.250373488E1,6.652983896E-2,-9.061155277E-1,-2.013421467E0,2.208922265E0
1.251367687E1,-2.050869960E-1,-8.896155623E-1,-1.575254515E0,1.820687593E0
1.252361787E1,-4.267300176E-1,-8.561996019E-1,-1.313907949E0,1.625278550E0
1.253355987E1,-4.973389473E-1,-8.196436867E-1,-1.270480093E0,1.591628559E0
1.254350188E1,-4.896273469E-1,-7.218007654E-1,-1.392246020E0,1.642887782E0
1.255344287E1,-4.779788163E-1,-5.387586495E-1,-1.585490066E0,1.741408447E0
1.256338487E1,-4.723078211E-1,-2.812367472E-1,-1.833004459E0,1.913654653E0
1.257332687E1,-4.709772871E-1,-6.709709197E-2,-1.939922551E0,1.997403597E0
1.258326788E1,-4.080662169E-1,1.058793345E-1,-1.959192050E0,2.004036417E0
1.259320987E1,-3.196202096E-1,3.052486306E-1,-1.877016451E0,1.928347625E0
1.260315087E1,-2.791220286E-1,5.401692903E-1,-1.706474220E0,1.811559061E0
1.261309287E1,-3.417813031E-1,7.252447754E-1,-1.425144795E0,1.635185656E0
1.262303487E1,-4.178299706E-1,8.303163171E-1,-8.345689970E-1,1.249204740E0
1.263297587E1,-4.860631035E-1,8.369239631E-1,-5.791959465E-2,9.695636854E-1
1.264291787E1,-4.768424099E-1,7.319567943E-1,7.666512483E-1,1.162279471E0
1.265285988E1,-4.308547166E-1,5.987771022E-1,1.375211912E0,1.560569642E0
1.266280087E1,-3.842554776E-1,4.989127985E-1,1.765277329E0,1.874238592E0
1.267274287E1,-3.675237431E-1,4.931316563E-1,1.973666248E0,2.067271388E0
1.268268487E1,-3.689322643E-1,5.416585761E-1,2.109590623E0,2.209044505E0
1.269262588E1,-2.909504342E-1,5.637727457E-1,2.150748589E0,2.242367356E0
1.270256787E1,-1.437468715E-1,5.682981983E-1,2.031196418E0,2.114091978E0
1.271250987E1,-9.608437121E-3,6.515184027E-1,1.894138268E0,2.003079711E0
1.272245087E1,5.333713174E-2,8.213724160E-1,1.804053140E0,1.982953662E0
1.273239288E1,4.772278145E-3,9.567477375E-1,1.751655071E0,1.995916956E0
1.274233387E1,-1.206141718E-2,9.457614040E-1,1.781540190E0,2.017051204E0
1.275227587E1,1.559394673E-1,7.454232243E-1,1.879173489E0,2.027625681E0
1.276221787E1,2.707490350E-1,5.170897454E-1,2.000112619E0,2.083539617E0
1.277215888E1,1.868083075E-1,4.281956953E-1,2.133737869E0,2.184281619E0
1.278210087E1,2.276452616E-2,3.497038418E-1,2.213298594E0,2.240870738E0
1.279204287E1,-1.436166796E-1,2.100863653E-1,2.361016803E0,2.374692059E0
1.280198387E1,-4.027037354E-1,1.386833838E-1,2.459779199E0,2.496380797E0
1.281192587E1,-6.843587778E-1,1.588018987E-1,2.489206481E0,2.586448121E0
1.282186787E1,-8.746279060E-1,2.179239732E-1,2.536921515E0,2.692291887E0
1.283180887E1,-8.416065596E-1,2.022475880E-1,2.658189259E0,2.795563597E0
1.284175087E1,-6.352368307E-1,8.302110672E-2,2.883912249E0,2.954211941E0
1.285169287E1,-4.038300553E-1,-8.800088793E-2,3.079344322E0,3.106957406E0
1.286163387E1,-2.035344871E-1,-2.658065298E-1,3.107638414E0,3.125619284E0
1.287157587E1,3.612409830E-2,-3.154230782E-1,2.700760497E0,2.719357265E0
1.288151688E1,3.247892579E-1,-3.152447382E-1,2.064320310E0,2.113358855E0
1.289145887E1,5.575116203E-1,-2.444101059E-1,1.227885466E0,1.370495613E0
1.290140087E1,6.975731928E-1,-9.640099794E-2,4.179291540E-1,8.188811205E-1
1.291134187E1,7.756718210E-1,5.597685724E-2,-2.664582020E-1,8.220706514E-1
1.292128388E1,8.046235053E-1,1.496188465E-1,-7.948371667E-1,1.140864105E0
1.293122587E1,7.750636375E-1,2.219632298E-1,-1.140774232E0,1.396909863E0
1.294116687E1,6.968280382E-1,2.759982267E-1,-1.376138695E0,1.567004162E0
1.295110887E1,5.589813180E-1,2.852254254E-1,-1.572691680E0,1.693272801E0
1.296105088E1,4.292348186E-1,2.148220253E-1,-1.620286261E0,1.689887156E0
1.297099187E1,3.101219194E-1,1.627212873E-1,-1.610830729E0,1.648462757E0
1.298093387E1,2.678837532E-1,4.403245747E-2,-1.483152682E0,1.507793899E0
1.299087487E1,3.060061374E-1,-9.756225497E-2,-1.343099588E0,1.380968737E0
1.300081688E1,3.746344690E-1,-1.923698866E-1,-1.162952136E0,1.236856835E0
1.301075887E1,4.529386269E-1,-2.031404579E-1,-1.065650375E0,1.175597791E0
1.302069987E1,5.298293665E-1,-1.867584600E-1,-1.116222943E0,1.249620558E0
1.303064187E1,5.821267171E-1,-1.743246482E-1,-1.267378145E0,1.405527645E0
1.304058387E1,5.989838744E-1,-7.876871914E-2,-1.463570357E0,1.583358577E0
1.305052487E1,5.447399857E-1,4.994720846E-2,-1.688080634E0,1.774500663E0
1.306046687E1,4.366620981E-1,1.361272734E-1,-1.875730648E0,1.930691557E0
1.307040888E1,2.395175213E-1,2.039587757E-1,-1.955170335E0,1.980317870E0
1.308034987E1,2.879600219E-2,2.476997495E-1,-1.876806536E0,1.893300596E0
1.309029187E1,-9.466006257E-2,1.903865111E-1,-1.810560506E0,1.823002166E0
1.310023287E1,-1.295448435E-1,6.434363812E-2,-1.945538802E0,1.950908301E0
1.311017488E1,-1.274253740E-1,-1.817606986E-3,-2.346467761E0,2.349925846E0
1.312011687E1,-1.333450221E-1,8.507230997E-2,-2.892994729E0,2.897315429E0
1.313005787E1,-1.619759135E-1,1.959150535E-1,-3.320213939E0,3.329930856E0
1.313999987E1,-2.127708951E-1,3.131590363E-1,-3.430329289E0,3.451159090E0
1.314994188E1,-2.124047863E-1,4.231995419E-1,-3.115058531E0,3.150841680E0
1.315988287E1,-2.033610441E-1,4.307971215E-1,-2.525237024E0,2.569778959E0
1.316982487E1,-2.579367623E-1,4.433861768E-1,-1.790429127E0,1.862460506E0
1.317976687E1,-3.164506533E-1,4.374992001E-1,-9.210902470E-1,1.067686194E0
1.318970788E1,-3.576124933E-1,4.594666046E-1,-1.928598833E-1,6.133442677E-1
1.319964987E1,-4.245711525E-1,4.938353688E-1,3.951741296E-1,7.617720313E-1
1.320959087E1,-4.140454334E-1,4.994276458E-1,8.713865751E-1,1.086359129E0
1.321953287E1,-3.753284604E-1,4.499259952E-1,1.169847758E0,1.308376334E0
1.322947487E1,-4.028094238E-1,4.294706807E-1,1.399311796E0,1.518148214E0
1.323941587E1,-4.661201513E-1,4.352769658E-1,1.594264398E0,1.717094349E0
1.324935787E1,-4.663006110E-1,4.363490528E-1,1.714434035E0,1.829513819E0
1.325929988E1,-4.525451823E-1,4.417893022E-1,1.755776188E0,1.866206032E0
1.326924087E1,-3.483147626E-1,4.503224364E-1,1.904667349E0,1.987931382E0
1.327918287E1,-2.332101298E-1,4.561664361E-1,2.222682205E0,2.280962728E0
1.328912487E1,-1.007465755E-1,4.528396627E-1,2.494299991E0,2.537074314E0
1.329906588E1,7.627254277E-3,4.614192823E-1,2.739653837E0,2.778249283E0
1.330900787E1,1.574889064E-2,3.957211366E-1,2.885654719E0,2.912704311E0
1.331894887E1,-9.745296685E-2,3.675334641E-1,2.846571345E0,2.871854166E0
1.332889087E1,-3.262702480E-1,4.307819188E-1,2.528908491E0,2.586001448E0
1.333883288E1,-5.492263350E-1,4.723304790E-1,2.198223302E0,2.314504555E0
1.334877362E1,-7.285508642E-1,3.947066447E-1,2.084030104E0,2.242712905E0
1.335871563E1,-8.690174295E-1,2.310702682E-1,2.188311687E0,2.365859844E0
1.336865762E1,-9.795878389E-1,5.164816350E-2,2.365872915E0,2.561174441E0
1.337859862E1,-1.064149102E0,-1.012208578E-1,2.485233883E0,2.705373620E0
1.338854062E1,-1.162209248E0,-1.583779755E-1,2.499944308E0,2.761437209E0
1.339848262E1,-1.191390801E0,-2.022569436E-1,2.412448912E0,2.698190072E0
1.340842362E1,-1.046342430E0,-3.028547806E-1,2.139655836E0,2.400974926E0
1.341836562E1,-8.097133604E-1,-3.586205533E-1,1.787592643E0,1.994926536E0
1.342830662E1,-5.517858075E-1,-3.527674904E-1,1.572202268E0,1.703153678E0
1.343824862E1,-2.981919915E-1,-3.933053595E-1,1.400208174E0,1.484651643E0
1.344819062E1,-8.658578865E-2,-5.162667498E-1,1.331071281E0,1.430307383E0
1.345813162E1,5.925305218E-2,-6.991047978E-1,1.223914622E0,1.410753502E0
1.346807363E1,6.226385660E-2,-9.058491871E-1,9.555531514E-1,1.318150736E0
1.347801562E1,-3.359209861E-2,-1.088956792E0,4.920163000E-1,1.195422671E0
1.348795662E1,-1.109359975E-1,-1.230588342E0,-2.230367786E-1,1.255547636E0
1.349789862E1,-1.361728086E-1,-1.336938962E0,-1.132467678E0,1.757393485E0
1.350784063E1,-1.490141713E-1,-1.321349115E0,-2.028706673E0,2.425658565E0
1.351778162E1,-1.625082294E-1,-1.191137762E0,-2.799533418E0,3.046736853E0
1.352772362E1,-1.116571053E-1,-1.050838793E0,-3.228336055E0,3.396893163E0
1.353766462E1,-2.303254791E-2,-8.706539190E-1,-3.168586866E0,3.286108865E0
1.354760663E1,5.884931107E-2,-7.856359881E-1,-2.542916665E0,2.662163089E0
1.355754862E1,4.087130651E-2,-9.250254232E-1,-1.679912658E0,1.918188999E0
1.356748962E1,-1.698762327E-1,-1.051402465E0,-9.163937634E-1,1.405020500E0
1.357743162E1,-4.395424365E-1,-1.055601642E0,-3.898666120E-1,1.208092859E0
1.358737363E1,-6.680422687E-1,-1.086329638E0,-3.337631625E-1,1.318252784E0
1.359731462E1,-8.309149258E-1,-1.069870895E0,-5.393921953E-1,1.458076571E0
1.360725662E1,-9.330781355E-1,-9.578867751E-1,-1.082948193E0,1.720743639E0
1.361719762E1,-9.565633310E-1,-7.362851956E-1,-1.794759575E0,2.162935789E0
1.362713962E1,-8.411891415E-1,-4.314844617E-1,-2.276715741E0,2.465200311E0
1.363708162E1,-5.239537188E-1,-1.552991241E-1,-2.494418689E0,2.553579823E0
1.364702262E1,-1.808587655E-1,4.939055353E-2,-2.400853298E0,2.408162345E0
1.365696462E1,-3.181718543E-2,2.030673677E-1,-1.935971003E0,1.946851923E0
1.366690662E1,-1.219404665E-1,2.972414535E-1,-1.267199221E0,1.307293320E0
1.367684762E1,-3.670570622E-1,3.536077353E-1,-6.857468337E-1,8.544109300E-1
1.368678962E1,-7.239611654E-1,3.772138220E-1,-2.683755040E-1,8.593226680E-1
1.369673063E1,-1.098823457E0,4.686701220E-1,-2.138262445E-1,1.213584086E0
1.370667262E1,-1.460983110E0,6.501384598E-1,-5.702520454E-1,1.697745287E0
1.371661462E1,-1.712823858E0,8.960638717E-1,-9.171386987E-1,2.139588611E0
1.372655562E1,-1.654923851E0,1.106099659E0,-1.048816826E0,2.249943587E0
1.373649763E1,-1.262713237E0,1.071630615E0,-1.081784597E0,1.978154394E0
1.374643962E1,-8.023572707E-1,8.900774923E-1,-8.170554167E-1,1.450377429E0
1.375638062E1,-5.450281803E-1,8.306440535E-1,-3.850531840E-1,1.065500453E0
1.376632262E1,-5.544775732E-1,8.199073961E-1,-1.219910449E-1,9.972839778E-1
1.377626463E1,-6.959185039E-1,7.056656662E-1,1.886703533E-1,1.008892015E0
1.378620562E1,-9.240704998E-1,5.408884978E-1,6.425329864E-1,1.248725468E0
1.379614762E1,-1.179406713E0,5.010063940E-1,9.773305213E-1,1.611577658E0
1.380608862E1,-1.290293968E0,4.514611816E-1,1.279879493E0,1.872636441E0
1.381603063E1,-1.249618251E0,3.376001054E-1,1.626766146E0,2.078915029E0
1.382597262E1,-1.124689346E0,2.639979860E-1,1.732172148E0,2.082076226E0
1.383591362E1,-9.119586504E-1,2.363707691E-1,1.761057394E0,1.997213775E0
1.384585562E1,-6.912818811E-1,2.516106597E-1,1.724974226E0,1.875290549E0
1.385579762E1,-5.078826465E-1,3.999305472E-1,1.603537497E0,1.728936589E0
1.386573862E1,-1.902909091E-1,5.420067778E-1,1.684064181E0,1.779340930E0
1.387568062E1,2.224626916E-1,5.745056024E-1,1.920142005E0,2.016554402E0
1.388562162E1,5.263469110E-1,5.696673238E-1,2.386563873E0,2.509432017E0
1.389556362E1,7.342449559E-1,4.783621743E-1,2.962318148E0,3.089219130E0
1.390550562E1,7.766352229E-1,2.394265240E-1,3.350677348E0,3.447829175E0
1.391544662E1,6.190182625E-1,-4.543140382E-2,3.400309099E0,3.456493829E0
1.392538863E1,3.330584268E-1,-2.113096029E-1,2.970303106E0,2.996377847E0
1.393533062E1,5.906513728E-2,-3.029030201E-1,2.170699289E0,2.192526929E0
1.394527162E1,-1.737724518E-1,-2.680141461E-1,1.311045737E0,1.349395928E0
1.395521362E1,-4.191369695E-1,-1.334451556E-2,4.557629782E-1,6.193333251E-1
1.396515463E1,-5.767603619E-1,2.810651314E-1,-2.134356505E-1,6.761692835E-1
1.397509662E1,-4.944609477E-1,4.648372722E-1,-7.340495127E-1,9.996969569E-1
1.398503862E1,-9.488620363E-2,4.990966934E-1,-1.000415913E0,1.122021792E0
1.399497962E1,4.927478597E-1,3.738075265E-1,-8.744715661E-1,1.071089651E0
1.400492163E1,1.023325962E0,1.440292007E-1,-3.630173671E-1,1.095318239E0
1.401486362E1,1.253508988E0,-4.931570917E-2,3.176400501E-1,1.294068014E0
1.402480462E1,1.183327929E0,-3.336175668E-1,8.016941965E-1,1.467746318E0
1.403474662E1,9.320457365E-1,-6.918735462E-1,9.506525999E-1,1.500379494E0
1.404468763E1,5.721273936E-1,-9.662284130E-1,7.846647656E-1,1.369899958E0
1.405462962E1,2.235238516E-1,-1.192220667E0,4.920934832E-1,1.309010705E0
1.406457162E1,-3.631421504E-2,-1.404958744E0,1.650622201E-1,1.415087747E0
1.407451262E1,-1.804730869E-1,-1.572619467E0,-3.803321421E-2,1.583397944E0
1.408445462E1,-1.460116991E-1,-1.689618452E0,-4.717358172E-2,1.696571624E0
1.409439662E1,4.295240365E-2,-1.737952706E0,4.485808432E-2,1.739062036E0
1.410433762E1,4.805784883E-1,-1.698542472E0,1.384006709E-1,1.770637444E0
1.411427963E1,1.041477985E0,-1.620315790E0,1.515937436E-1,1.932118091E0
1.412422062E1,1.442076869E0,-1.506644456E0,2.261293709E-2,2.085683235E0
1.413416262E1,1.565830850E0,-1.311393646E0,-1.100568777E-1,2.045407554E0
1.414410462E1,1.488810594E0,-1.067823785E0,-3.074191171E-1,1.857770474E0
1.415404563E1,1.376590101E0,-9.170790571E-1,-7.110290247E-1,1.800443439E0
1.416398762E1,1.205419733E0,-8.197748105E-1,-1.220658308E0,1.901334841E0
1.417392962E1,9.815819588E-1,-6.852885582E-1,-1.715484195E0,2.091891386E0
1.418387062E1,7.924879016E-1,-5.230099051E-1,-2.231196336E0,2.424832680E0
1.419381263E1,6.732508953E-1,-3.600431809E-1,-2.617991406E0,2.727045445E0
1.420375362E1,5.754298279E-1,-2.083490114E-1,-2.921309870E0,2.984724469E0
1.421369562E1,5.018825262E-1,-6.495408744E-2,-3.174377364E0,3.214463680E0
1.422363762E1,4.655251240E-1,3.390201017E-2,-3.283143761E0,3.316156803E0
1.423357863E1,4.510657637E-1,1.761127268E-1,-3.306625594E0,3.341893002E0
1.424352062E1,4.254590522E-1,3.102979937E-1,-3.286026438E0,3.327952825E0
1.425346262E1,4.193007647E-1,4.008225399E-1,-3.178054678E0,3.230557750E0
1.426340362E1,3.893087876E-1,4.961099356E-1,-2.867435964E0,2.935962433E0
1.427334562E1,2.832560831E-1,5.708461225E-1,-2.447190143E0,2.528801871E0
1.428328662E1,1.420429015E-1,6.136644056E-1,-2.017243207E0,2.113298452E0
1.429322862E1,3.015445657E-2,6.065391348E-1,-1.454387890E0,1.576084752E0
1.430317063E1,-5.709075183E-2,6.002633183E-1,-8.319207931E-1,1.027456866E0
1.431311162E1,-1.432972755E-1,6.501381674E-1,-2.367964464E-1,7.066019410E-1
1.432305362E1,-2.856354431E-1,7.265931433E-1,2.490802771E-1,8.194914196E-1
1.433299562E1,-3.853807743E-1,8.186141382E-1,6.800668484E-1,1.131873830E0
1.434293663E1,-3.108152530E-1,8.651885265E-1,1.073575106E0,1.413407520E0
1.435287862E1,-1.833851830E-1,8.965391041E-1,1.318261786E0,1.604751266E0
1.436281962E1,-1.390595059E-1,9.641584986E-1,1.525170189E0,1.809719112E0
1.437276162E1,-1.447627339E-1,1.051088469E0,1.904456849E0,2.180068602E0
1.438270363E1,-1.266056675E-1,1.095284649E0,2.343259978E0,2.589699748E0
1.439264462E1,2.971291870E-2,1.055078024E0,2.837082483E0,3.027062852E0
1.440258662E1,2.502417534E-1,8.819676965E-1,3.331747572E0,3.455579522E0
1.441252862E1,5.185580543E-1,6.653830281E-1,3.741566638E0,3.835486662E0
1.442246963E1,8.284194803E-1,4.615923598E-1,4.012404404E0,4.122952273E0
1.443241162E1,1.158927425E0,3.488963413E-1,3.929983222E0,4.112129565E0
1.444235262E1,1.437248970E0,2.750100473E-1,3.463195319E0,3.759659152E0
1.445229462E1,1.573014446E0,2.605574843E-1,2.978834778E0,3.378715923E0
1.446223662E1,1.528371394E0,3.057202086E-1,2.580171030E0,3.014409811E0
1.447217762E1,1.416516643E0,2.936261201E-1,2.370035548E0,2.776653417E0
1.448211962E1,1.278516799E0,1.967605609E-1,2.338481634E0,2.672417683E0
1.449206062E1,1.129156546E0,3.645826668E-2,2.432542868E0,2.682086597E0
1.450200262E1,9.907114358E-1,-2.134944150E-1,2.510743530E0,2.707567560E0
1.451194462E1,8.754519249E-1,-4.999068251E-1,2.322739760E0,2.532082719E0
1.452188562E1,7.290509474E-1,-7.145145500E-1,1.862967930E0,2.124310673E0
1.453182763E1,4.771642991E-1,-7.655806231E-1,1.243670025E0,1.536396625E0
1.454176962E1,2.770605196E-1,-7.180263877E-1,6.379019916E-1,9.996216163E-1
1.455171062E1,2.140428107E-1,-7.368281096E-1,1.089897609E-1,7.749895199E-1
1.456165262E1,1.877046856E-1,-7.779781821E-1,-1.599669564E-1,8.161326657E-1
1.457159363E1,1.459061569E-1,-8.095987549E-1,-2.747074538E-1,8.672963368E-1
1.458153562E1,7.338833056E-2,-7.701092917E-1,-3.194901091E-1,8.369755659E-1
1.459147762E1,5.986152805E-2,-7.319556248E-1,-3.294128340E-1,8.048945611E-1
1.460141862E1,1.714879446E-1,-7.409468883E-1,-3.455938339E-1,8.353714770E-1
1.461136063E1,2.917299411E-1,-7.338352123E-1,-3.021320647E-1,8.455201132E-1
1.462130262E1,3.783802684E-1,-7.582125467E-1,-2.600057995E-1,8.863751516E-1
1.463124362E1,3.810313960E-1,-7.897196835E-1,-2.966432834E-1,9.256561677E-1
1.464118562E1,2.440036514E-1,-7.830129272E-1,-4.186080158E-1,9.208038319E-1
1.465112663E1,-2.234009139E-2,-7.009487173E-1,-6.125046104E-1,9.311230218E-1
1.466106862E1,-3.368681802E-1,-5.921133229E-1,-8.230850655E-1,1.068432208E0
1.467101062E1,-6.307233649E-1,-4.675348851E-1,-1.082833588E0,1.337508658E0
1.468095162E1,-8.753069870E-1,-3.964447296E-1,-1.269141081E0,1.591869916E0
1.469089362E1,-1.053863338E0,-3.824330467E-1,-1.401389312E0,1.794651769E0
1.470083462E1,-1.173153920E0,-3.174672648E-1,-1.561980751E0,1.979105719E0
1.471077662E1,-1.199320794E0,-2.643184134E-1,-1.748846068E0,2.136983192E0
1.472071863E1,-1.111308358E0,-2.757216534E-1,-1.977699657E0,2.285240607E0
1.473065962E1,-9.744862895E-1,-2.592515087E-1,-2.198346679E0,2.418586983E0
1.474060162E1,-8.652570120E-1,-2.424393019E-1,-2.239526864E0,2.413074199E0
1.475054362E1,-7.884317612E-1,-2.457599357E-1,-2.075403707E0,2.233679282E0
1.476048463E1,-7.194903843E-1,-2.449410331E-1,-1.805633642E0,1.959075132E0
1.477042662E1,-7.525734188E-1,-2.730867518E-1,-1.430622466E0,1.639397379E0
1.478036762E1,-7.826593168E-1,-3.052234876E-1,-1.213021259E0,1.475512643E0
1.479030962E1,-7.536251137E-1,-3.323446280E-1,-1.167636341E0,1.428908110E0
1.480025163E1,-6.698906466E-1,-3.445998073E-1,-1.324815930E0,1.524020916E0
1.481019262E1,-6.154851555E-1,-2.909431252E-1,-1.595512778E0,1.734684670E0
1.482013462E1,-6.547993485E-1,-1.863171414E-1,-1.850692286E0,1.971937677E0
1.483007562E1,-6.975479767E-1,-9.440534323E-2,-1.993321663E0,2.113957616E0
1.484001763E1,-7.371633013E-1,1.019081980E-2,-2.043859733E0,2.172757739E0
1.484995962E1,-7.708211171E-1,9.378378421E-2,-2.038137648E0,2.181046919E0
1.485990062E1,-7.595962172E-1,2.269473964E-1,-1.873694063E0,2.034507551E0
1.486984262E1,-6.500943864E-1,3.609348813E-1,-1.604282432E0,1.768224766E0
1.487978462E1,-4.393424252E-1,4.778522971E-1,-1.271088789E0,1.427246052E0
1.488972562E1,-9.218164712E-2,5.293387851E-1,-7.946658432E-1,9.592657650E-1
1.489966762E1,1.937865939E-1,5.870312154E-1,-3.181978744E-1,6.952760453E-1
1.490960862E1,2.913099649E-1,7.383752829E-1,2.760797954E-1,8.404044309E-1
1.491955062E1,2.643102273E-1,8.805810294E-1,1.053703929E0,1.398418684E0
1.492949262E1,2.433136068E-1,9.162157157E-1,1.665447232E0,1.916342148E0
1.493943362E1,2.916527579E-1,8.201348528E-1,2.050223258E0,2.227352220E0
1.494937563E1,2.846559066E-1,6.799808943E-1,2.154384388E0,2.277010121E0
1.495931662E1,4.862646863E-2,6.309712869E-1,2.012629169E0,2.109778536E0
1.496925862E1,-2.216936000E-1,5.820669293E-1,1.766704634E0,1.873284609E0
1.497920062E1,-4.351920350E-1,4.704810047E-1,1.446915733E0,1.582501065E0
1.498914163E1,-6.496116988E-1,4.105543533E-1,1.292090233E0,1.503345405E0
1.499908362E1,-8.817745192E-1,3.824307078E-1,1.259327114E0,1.584198324E0
1.500902562E1,-1.174834117E0,5.031040826E-1,1.488929731E0,1.962208110E0
1.501896662E1,-1.143961769E0,4.276507348E-1,1.812527509E0,2.185586798E0
1.502890863E1,-6.894699021E-1,5.832422197E-2,2.098622416E0,2.209748064E0
1.503884962E1,-2.445622066E-1,-1.523913038E-1,2.226234389E0,2.244805857E0
1.504879162E1,1.873495404E-1,-1.306811768E-1,2.172109637E0,2.184087383E0
1.505873362E1,6.573345550E-1,-1.600570035E-1,2.004438390E0,2.115533082E0
1.506867463E1,8.873244770E-1,-6.925793052E-2,1.867027652E0,2.068316621E0
1.507861662E1,8.847619347E-1,1.953958207E-1,1.772029694E0,1.990244317E0
1.508855762E1,8.450818522E-1,2.884288225E-1,1.676261072E0,1.899264517E0
1.509849962E1,7.203424698E-1,2.696320707E-1,1.638233120E0,1.809807306E0
1.510844162E1,5.108819027E-1,2.687722376E-1,1.550179315E0,1.654174943E0
1.511838262E1,2.126005219E-1,1.728539273E-1,1.543443323E0,1.567576076E0
1.512832462E1,-8.469684564E-2,4.199177921E-2,1.574718325E0,1.577553381E0
1.513826662E1,-3.246954466E-1,-1.151997963E-1,1.491654534E0,1.530925006E0
1.514820762E1,-4.987571163E-1,-2.189299867E-1,1.313229087E0,1.421710109E0
1.515814962E1,-5.634166503E-1,-2.501190349E-1,1.118726721E0,1.277320371E0
1.516809062E1,-4.961094240E-1,-2.593286920E-1,1.012731904E0,1.157152471E0
1.517803263E1,-2.479467212E-1,-2.039327556E-1,9.904657066E-1,1.041195688E0
1.518797462E1,8.149900340E-2,-1.801217240E-1,9.713903350E-1,9.913047492E-1
1.519791562E1,3.892591593E-1,-2.147327091E-1,9.484581399E-1,1.047475858E0
1.520785762E1,5.738886481E-1,-2.328712106E-1,8.133371723E-1,1.022298653E0
1.521779863E1,5.893863277E-1,-2.337611568E-1,5.483512992E-1,8.382777994E-1
1.522774062E1,5.357517189E-1,-2.295083307E-1,1.649084383E-1,6.057216945E-1
1.523768262E1,4.012161306E-1,-2.252264147E-1,-2.252353317E-1,5.122814421E-1
1.524762362E1,2.923506962E-1,-2.324928957E-1,-5.788094455E-1,6.888702710E-1
1.525756563E1,2.925810765E-1,-2.615477103E-1,-8.147270554E-1,9.043180115E-1
1.526750662E1,3.795521966E-1,-2.490127417E-1,-8.508371204E-1,9.643604207E-1
1.527744862E1,5.619957769E-1,-2.007606411E-1,-8.300806743E-1,1.022339481E0
1.528739062E1,7.915960550E-1,-1.812126683E-1,-7.985671055E-1,1.138934488E0
1.529733163E1,9.856226040E-1,-1.771438833E-1,-7.537037587E-1,1.253355986E0
1.530727362E1,1.056040695E0,-1.807865524E-1,-7.946003544E-1,1.333902339E0
1.531721462E1,9.434760929E-1,-1.675861707E-1,-1.100291035E0,1.459065668E0
1.532715662E1,6.747464669E-1,-1.191944678E-1,-1.638097465E0,1.775627613E0
1.533709862E1,3.151287440E-1,-5.650179103E-2,-2.243676049E0,2.266402610E0
1.534703950E1,-2.188941725E-2,-4.945867360E-3,-2.765300310E0,2.765391367E0
1.535698150E1,-3.570571540E-1,8.410386488E-2,-3.183710105E0,3.204773518E0
1.536692350E1,-7.210386539E-1,1.481359926E-1,-3.273573039E0,3.355312422E0
1.537686450E1,-1.008406426E0,2.025311780E-1,-3.216862063E0,3.377292397E0
1.538680650E1,-1.062347721E0,1.472083318E-1,-3.200997983E0,3.375891150E0
1.539674750E1,-7.965642880E-1,-6.367910206E-3,-3.120443231E0,3.220515669E0
1.540668950E1,-4.026573231E-1,-7.129568517E-2,-3.046052030E0,3.073377453E0
1.541663150E1,-6.223714214E-2,-3.574242130E-2,-3.000430300E0,3.001288551E0
1.542657250E1,2.046831726E-1,5.325760961E-2,-2.858715427E0,2.866528469E0
1.543651450E1,3.412066680E-1,1.514542875E-1,-2.681448898E0,2.707310212E0
1.544645550E1,2.997254969E-1,2.136069739E-1,-2.380872193E0,2.409152488E0
1.545639750E1,1.395575425E-1,3.196522231E-1,-1.920404545E0,1.951821577E0
1.546633950E1,9.136493728E-3,4.438188708E-1,-1.313866434E0,1.386832243E0
1.547628050E1,-1.015723485E-1,4.902241284E-1,-5.421041340E-1,7.379116005E-1
1.548622250E1,-2.551461055E-1,4.869445713E-1,2.672540081E-1,6.112603827E-1
1.549616350E1,-3.486063925E-1,4.877973877E-1,1.057821538E0,1.215919041E0
1.550610550E1,-3.590617257E-1,3.880612841E-1,1.767484653E0,1.844862835E0
1.551604750E1,-3.856366631E-1,3.444837400E-1,2.328323851E0,2.385052753E0
1.552598850E1,-4.145830849E-1,3.833300096E-1,2.769902068E0,2.826867259E0
1.553593050E1,-1.945579147E-1,4.411563411E-1,3.037337340E0,3.075368241E0
1.554587150E1,2.762101883E-1,4.609848341E-1,3.103391581E0,3.149577494E0
1.555581350E1,6.566177595E-1,5.374053115E-1,2.958997514E0,3.078249119E0
1.556575550E1,8.592013431E-1,6.106016341E-1,2.789073334E0,2.981608856E0
1.557569650E1,1.065252837E0,6.616264844E-1,2.684559032E0,2.963000238E0
1.558563850E1,1.227572494E0,6.774171826E-1,2.513578845E0,2.878177701E0
1.559558050E1,1.347430767E0,6.175285381E-1,2.268181729E0,2.709531237E0
1.560552150E1,1.265655263E0,5.687624672E-1,2.049179530E0,2.474774886E0
1.561546350E1,1.024045901E0,6.538827243E-1,1.963113778E0,2.308689743E0
1.562540450E1,7.096360718E-1,7.159766462E-1,1.965532771E0,2.208964686E0
1.563534650E1,3.804856315E-1,7.240490198E-1,2.122801237E0,2.274928876E0
1.564528850E1,1.291970804E-1,7.156769764E-1,2.400251620E0,2.508005833E0
1.565522950E1,2.519590806E-2,6.432171106E-1,2.741951208E0,2.816497739E0
1.566517150E1,7.509977404E-2,4.139919314E-1,3.152319912E0,3.180275165E0
1.567511250E1,1.197885449E-1,1.556800702E-1,3.500988212E0,3.506494552E0
1.568505450E1,6.487456530E-2,-5.990501672E-2,3.701080517E0,3.702133751E0
1.569499650E1,-3.718171343E-2,-2.391403028E-1,3.893687215E0,3.901201186E0
1.570493750E1,-1.472096474E-1,-3.772874969E-1,3.897322429E0,3.918308137E0
1.571487950E1,-1.666599718E-1,-5.265636966E-1,3.544585052E0,3.587356696E0
1.572482050E1,-7.742173992E-2,-6.777045733E-1,2.955937666E0,3.033619142E0
1.573476250E1,-1.224882044E-2,-7.205383515E-1,2.111456469E0,2.231047730E0
1.574470450E1,1.114134318E-1,-6.644705701E-1,1.101796108E0,1.291467675E0
1.575464550E1,3.797431813E-1,-6.866022813E-1,2.443001783E-1,8.217725681E-1
1.576458750E1,6.617628707E-1,-7.264636275E-1,-3.795363361E-1,1.053435964E0
1.577452850E1,8.569401518E-1,-7.297445002E-1,-7.711711460E-1,1.364396715E0
1.578447050E1,9.421907287E-1,-7.401659927E-1,-9.413122576E-1,1.523692171E0
1.579441250E1,8.882142039E-1,-7.746049234E-1,-8.717034942E-1,1.465880023E0
1.580435350E1,7.779003411E-1,-8.357840484E-1,-7.952441329E-1,1.391429893E0
1.581429550E1,6.630760092E-1,-9.068224561E-1,-8.601154822E-1,1.414848191E0
1.582423650E1,5.140657116E-1,-9.362392133E-1,-1.096039524E0,1.530395393E0
1.583417850E1,3.350557626E-1,-9.331358036E-1,-1.456279464E0,1.761747618E0
1.584412050E1,2.365871527E-1,-8.866635954E-1,-1.892536715E0,2.103292902E0
1.585406150E1,2.367670642E-1,-8.415450177E-1,-2.298657417E0,2.459284974E0
1.586400350E1,1.579874546E-1,-7.717044121E-1,-2.567352764E0,2.685477230E0
1.587394550E1,-4.481543619E-2,-6.767596632E-1,-2.573637936E0,2.661507898E0
1.588388650E1,-2.647118214E-1,-6.437714267E-1,-2.452649689E0,2.549510638E0
1.589382850E1,-3.731702531E-1,-6.953041077E-1,-2.342164795E0,2.471525797E0
1.590376950E1,-3.969896170E-1,-7.709121144E-1,-2.305953573E0,2.463600642E0
1.591371150E1,-3.701887213E-1,-8.035006937E-1,-2.324671095E0,2.487317582E0
1.592365250E1,-2.710918280E-1,-7.533833313E-1,-2.376863342E0,2.508098198E0
1.593359450E1,-1.014166664E-1,-6.854024327E-1,-2.526547385E0,2.619828911E0
1.594353650E1,1.199407918E-1,-6.531117690E-1,-2.619140384E0,2.702006130E0
1.595347750E1,2.990481335E-1,-5.480457821E-1,-2.676995074E0,2.748833679E0
1.596341950E1,4.474784238E-1,-4.363782889E-1,-2.760688611E0,2.830559054E0
1.597336150E1,5.661630144E-1,-3.885360780E-1,-2.794003122E0,2.877143425E0
1.598330250E1,5.937626763E-1,-4.072480452E-1,-2.774023771E0,2.865940154E0
1.599324450E1,5.732339061E-1,-4.475280520E-1,-2.726381242E0,2.821707488E0
1.600318550E1,5.270751087E-1,-5.194075817E-1,-2.677418997E0,2.777798570E0
1.601312750E1,4.171012614E-1,-5.944171259E-1,-2.611070641E0,2.710165138E0
1.602306950E1,1.660784662E-1,-5.710531139E-1,-2.470744482E0,2.541311081E0
1.603301050E1,-1.873347031E-1,-4.593435207E-1,-2.274751661E0,2.328215170E0
1.604295250E1,-4.878185108E-1,-3.768536335E-1,-1.990016817E0,2.083303265E0
1.605289350E1,-5.879547831E-1,-3.267514738E-1,-1.567696989E0,1.705910666E0
1.606283550E1,-5.709130000E-1,-2.478859833E-1,-1.197161272E0,1.349290267E0
1.607277750E1,-4.713238078E-1,-1.325859073E-1,-6.830384034E-1,8.403967010E-1
1.608271850E1,-3.504394946E-1,-3.132938147E-3,-6.395450592E-2,3.562412575E-1
1.609266050E1,-3.137852731E-1,4.208328813E-2,5.335800630E-1,6.204352379E-1
1.610260150E1,-4.223979617E-1,1.935808450E-2,1.200149783E0,1.272459931E0
1.611254350E1,-6.504855651E-1,1.410670012E-2,1.872252724E0,1.982084946E0
1.612248550E1,-9.338767920E-1,3.576887995E-2,2.349284365E0,2.528347741E0
1.613242650E1,-1.250023025E0,1.021160665E-1,2.746020870E0,3.018876591E0
1.614236850E1,-1.613508169E0,2.728807837E-1,2.987735410E0,3.406528352E0
1.615230950E1,-1.799647555E0,5.540692914E-1,3.025359904E0,3.563499214E0
1.616225150E1,-1.661491590E0,8.097177458E-1,2.944277734E0,3.476344129E0
1.617219350E1,-1.192647952E0,8.562668449E-1,2.739067946E0,3.107747618E0
1.618213450E1,-5.625269964E-1,7.976619565E-1,2.634642522E0,2.809633862E0
1.619207650E1,8.076335058E-2,9.249915093E-1,2.495611521E0,2.662744613E0
1.620201750E1,6.987570347E-1,1.071567172E0,2.243484260E0,2.582583827E0
1.621195950E1,1.214238723E0,1.148754804E0,2.286480591E0,2.832314737E0
1.622190150E1,1.491418891E0,1.138498788E0,2.503649104E0,3.128700790E0
