"Time (s)","Linear Acceleration x (m/s^2)","Linear Acceleration y (m/s^2)","Linear Acceleration z (m/s^2)","Absolute acceleration (m/s^2)"
8.478833246E-3,-3.046381813E-1,-1.556687266E0,-2.452509356E-1,1.605063141E0
1.845783333E-2,1.007883100E-1,-1.533329979E0,-1.070679565E0,1.872862472E0
2.843683329E-2,4.382014507E-1,-4.034657738E-1,-1.723062771E0,1.823115590E0
3.841583326E-2,5.269180378E-1,5.942776698E-1,-2.074630705E0,2.221463736E0
4.839483334E-2,7.726551694E-1,1.003020848E0,-2.084380352E0,2.438788282E0
5.837383331E-2,8.954629241E-1,7.775954819E-1,-2.416139674E0,2.691512494E0
6.835283327E-2,1.266094389E0,-1.819782150E-1,-2.228999537E0,2.569931908E0
7.833283325E-2,1.836067084E0,-1.798675163E0,-2.069711443E0,3.300012142E0
8.831183333E-2,2.047879840E0,-2.215811142E0,-2.647429798E0,4.014039784E0
9.829083330E-2,1.768738881E0,-1.111101659E0,-4.159251378E0,4.654283635E0
1.082698333E-1,1.741991085E0,-4.063981524E-1,-5.279415929E0,5.574219672E0
1.182488333E-1,1.028234480E0,-2.840127128E-1,-5.469842201E0,5.572890011E0
1.282278333E-1,1.892144367E-1,-3.208618659E-1,-5.388671739E0,5.401531037E0
1.382068333E-1,-4.961985210E-1,-7.004572588E-1,-3.853830839E0,3.948273734E0
1.481858334E-1,-1.489172975E0,-9.510458252E-1,-2.247452765E0,2.858875346E0
1.581648333E-1,-1.645920747E0,-9.318119940E-1,-2.332162548E0,3.002717244E0
1.681438333E-1,-4.801207244E-1,-9.128073737E-1,-1.797453387E0,2.072334889E0
1.781228333E-1,-9.239568445E-1,-1.592170510E0,-4.548240908E0,4.906648402E0
1.881018333E-1,-9.077451468E-2,-7.726247638E-1,-4.651650671E0,4.716253068E0
1.980808333E-1,2.093445291E0,-4.575057408E-1,-7.722999510E0,8.014770497E0
2.080598333E-1,2.936608526E0,-1.054947047E0,-1.133577245E1,1.175739427E1
2.180388334E-1,3.420189340E0,-1.673620470E0,-1.273116837E1,1.328839150E1
2.280178333E-1,3.889940027E0,-1.997865534E0,-1.189563400E1,1.267395788E1
2.379978333E-1,3.758590806E0,-2.807900784E0,-1.041002139E1,1.141839993E1
2.479768333E-1,2.423049914E0,-3.984842384E0,-1.028443606E1,1.129246496E1
2.579558333E-1,1.084972499E0,-5.301483906E0,-8.859304715E0,1.038124159E1
2.679348333E-1,5.551884484E-1,-7.201460034E0,-7.121592330E0,1.014329030E1
2.779138333E-1,3.976036477E-1,-8.682668517E0,-5.991153052E0,1.055654944E1
2.878928334E-1,9.111037874E-1,-9.135385680E0,-5.241242967E0,1.057147149E1
2.978718333E-1,1.438272963E0,-9.100711691E0,-4.885256292E0,1.042867736E1
3.078508333E-1,1.061155035E0,-9.416284751E0,-3.468080083E0,1.009059205E1
3.178298332E-1,1.733173192E-1,-9.761670424E0,-1.871982583E0,9.941054629E0
3.278088333E-1,-1.107837451E0,-8.560716063E0,-6.814043990E-1,8.658953475E0
3.377878333E-1,-2.286721496E0,-6.912017012E0,9.737204504E-1,7.345284602E0
3.477668333E-1,-4.417855600E0,-6.559101294E0,3.841226581E0,8.791716530E0
3.577458333E-1,-6.651795450E0,-6.295784801E0,7.320415789E0,1.172483587E1
3.677248333E-1,-7.577458804E0,-5.124972253E0,9.001244706E0,1.283376908E1
3.777038333E-1,-8.095309857E0,-4.072392744E0,8.777920829E0,1.261627197E1
3.876838333E-1,-8.249099815E0,-3.585122629E0,7.845804487E0,1.193555194E1
3.976628333E-1,-8.700083864E0,-3.471697755E0,6.546365474E0,1.142799394E1
4.076418333E-1,-1.003259999E1,-2.990849637E0,5.529237633E0,1.183937131E1
4.176208333E-1,-1.125702917E1,-2.222037988E0,5.753615763E0,1.283597495E1
4.275998333E-1,-1.223250612E1,-1.153593083E0,5.560328448E0,1.348637221E1
4.375788333E-1,-1.250131666E1,-7.970427364E-2,4.606755749E0,1.332334303E1
4.475578333E-1,-1.225660367E1,3.480183819E-1,3.453022918E0,1.273847783E1
4.575368332E-1,-1.215998077E1,3.055287123E-2,2.986235014E0,1.252132842E1
4.675158333E-1,-1.231251007E1,1.763754129E-1,3.449046226E0,1.278768674E1
4.774948333E-1,-1.294090565E1,8.543343401E-1,4.320257385E0,1.366973117E1
4.874738333E-1,-1.382198750E1,2.896065686E0,3.907562658E0,1.465276700E1
4.974528333E-1,-1.324412706E1,4.549060687E0,2.465178518E0,1.421892963E1
5.074318333E-1,-1.198991684E1,3.661261563E0,1.293813261E0,1.260305101E1
5.174108333E-1,-1.046014723E1,1.423843204E0,6.268781628E-1,1.057520618E1
5.273898334E-1,-9.614122953E0,-6.281195998E-2,4.789027494E-1,9.626248145E0
5.373698333E-1,-9.394024401E0,1.574894911E-1,6.693069483E-1,9.419154377E0
5.473488333E-1,-8.947329869E0,1.379725378E0,1.569812511E0,9.188180735E0
5.573278333E-1,-8.995543671E0,2.356406858E0,2.731090005E0,9.691816745E0
5.673068333E-1,-9.780988455E0,3.360281399E0,2.994809371E0,1.076699166E1
5.772858333E-1,-1.178405509E1,6.318246880E0,1.710512307E0,1.347998703E1
5.872648333E-1,-1.327904663E1,8.996276327E0,1.647855737E-1,1.604036226E1
5.972438334E-1,-1.386712099E1,9.169907641E0,-2.005265186E0,1.674530797E1
6.072228333E-1,-1.389248153E1,7.561247984E0,-2.600326967E0,1.602919881E1
6.172018333E-1,-1.085432441E1,8.103880121E0,-4.567643139E0,1.429519483E1
6.271808333E-1,-7.056496448E0,8.103958474E0,-8.461380640E0,1.367710669E1
6.371598333E-1,-5.004124339E0,6.880891113E0,-1.122804920E1,1.408747712E1
6.471388333E-1,-3.313578519E0,4.406826582E0,-1.205966126E1,1.326029233E1
6.571178333E-1,-1.342874470E0,3.702602547E0,-1.253122283E1,1.313560516E1
6.670968333E-1,-8.823109281E-1,4.178830195E0,-1.197206880E1,1.271107886E1
6.770758333E-1,-8.359237969E-1,4.424377584E0,-9.460710141E0,1.047754370E1
6.870548333E-1,-3.316108024E-1,4.373349518E0,-7.110469172E0,8.354335616E0
6.970348333E-1,4.056692970E-1,3.951417360E0,-3.079492257E0,5.026085882E0
7.070138333E-1,7.913288373E-1,4.781367057E0,1.568816292E0,5.094002044E0
7.169928333E-1,2.195425994E0,5.131950905E0,5.057467318E0,7.532250066E0
7.269718333E-1,3.621047337E0,5.106813140E0,7.787064528E0,9.991491292E0
7.369508334E-1,4.586934857E0,5.047008988E0,9.925273179E0,1.204256280E1
7.469298333E-1,5.015344561E0,3.957305506E0,1.020405322E1,1.203896383E1
7.569088333E-1,5.214601883E0,2.539800099E0,8.691392562E0,1.044906513E1
7.668878332E-1,5.499468289E0,2.113961416E0,5.267377682E0,7.903053332E0
7.768668333E-1,5.442923375E0,3.310507561E0,2.554163200E0,6.863572308E0
7.868458333E-1,3.399934877E0,6.243273881E0,9.394814944E-1,7.170819437E0
7.968248333E-1,2.625180557E0,1.017052996E0,9.620412219E-1,2.975145890E0
8.068038333E-1,3.744230629E0,-2.231216217E0,8.856844792E-1,4.447698934E0
8.167828333E-1,3.971094995E0,-4.008127458E0,-4.557388584E-1,5.660598828E0
8.267618333E-1,3.365619323E0,-5.041681589E0,-2.809961343E-1,6.068352783E0
8.367408334E-1,3.156572008E0,-4.496559123E0,9.605522284E-1,5.577244066E0
8.467198333E-1,1.799899862E0,-5.884683441E0,2.748638084E0,6.739744063E0
8.566998333E-1,-4.613599330E-1,-5.856054304E0,2.935180635E0,6.566697066E0
8.666788333E-1,-1.529986541E0,-3.631932514E0,1.986625724E0,4.413442462E0
8.766578333E-1,-2.404476233E0,-3.492801526E0,2.313775686E0,4.830603107E0
8.866368333E-1,-2.042667485E0,-3.125084751E0,1.549397835E0,4.042187379E0
8.966158333E-1,-9.349697828E-1,-2.284598372E0,5.899419594E-1,2.538028710E0
9.065948332E-1,-5.175926059E-1,-1.466150149E0,6.687904930E-1,1.692565830E0
9.165738333E-1,-5.571168602E-2,3.998203272E-1,9.571462253E-1,1.038792079E0
9.265528333E-1,6.281020582E-1,1.710038390E0,1.662666588E0,2.466415147E0
9.365318333E-1,1.785411631E0,2.233013066E0,2.542143663E0,3.825772661E0
9.465108333E-1,1.706411070E0,3.257539389E0,3.723840511E0,5.233582880E0
9.564898333E-1,1.895258009E-2,4.642236069E0,4.250792755E0,6.294438336E0
9.664688333E-1,-1.496603032E0,4.149765440E0,2.073240237E0,4.874289582E0
9.764478334E-1,-2.670563722E0,2.987987132E0,-3.569293924E0,5.366547941E0
9.864268333E-1,-5.116807201E0,3.231037176E0,-8.503166013E0,1.043672120E1
9.964066250E-1,-9.193490047E0,3.465454683E0,-8.457226778E0,1.296357667E1
1.006385625E0,-9.313487776E0,3.725746411E-1,-9.698154459E0,1.345117342E1
1.016364625E0,-8.388558832E0,8.211218628E-1,-9.068176614E0,1.238038721E1
1.026343625E0,-8.486107931E0,3.232886066E0,-6.918688100E0,1.141638407E1
1.036322625E0,-7.078095478E0,5.644652900E0,-2.970988984E0,9.528290376E0
1.046301625E0,-4.792907122E0,4.091808423E0,-1.015412267E0,6.383252848E0
1.056280625E0,-2.667440139E0,1.911933976E0,-5.532983360E-1,3.328192824E0
1.066259625E0,-3.595716029E-1,3.113223967E0,-2.904382181E-1,3.147349609E0
1.076238625E0,1.863527509E0,3.215556673E0,-9.321581492E-1,3.831639115E0
1.086217625E0,8.241689054E0,3.703126457E-1,4.968539938E-1,8.264952136E0
1.096196625E0,1.070902461E1,-1.214945870E0,4.943891001E0,1.185754442E1
1.106175625E0,7.841374052E0,-2.365913554E0,8.197244368E0,1.158790357E1
1.116154625E0,2.925588278E0,-3.932020099E0,7.746553849E0,9.166730353E0
1.126133625E0,-1.421648160E0,-6.750236249E0,1.101962754E0,6.985778039E0
1.136112625E0,-5.756811267E0,-8.225200490E0,-6.954787055E0,1.221326582E1
1.146091625E0,-6.861126940E0,-3.009915653E0,-3.143892320E0,8.125190093E0
1.156071625E0,-6.905693248E0,-9.205056717E-1,1.772813952E0,7.188796786E0
1.166050625E0,-3.108930064E0,-2.685058092E0,-1.240472767E0,4.291125236E0
1.176029625E0,2.865077198E-2,-4.177671862E0,1.731755534E0,4.522470595E0
1.186008625E0,4.025913227E-1,-5.174039748E0,3.934261630E0,6.512386786E0
1.195987625E0,8.859794712E-1,-2.678425303E0,3.595070497E0,4.569841748E0
1.205966625E0,3.754018868E0,-1.871960510E0,4.923198874E0,6.467981212E0
1.215945625E0,7.111946763E0,-2.426419372E0,4.547158588E0,8.783162811E0
1.225924625E0,9.567373295E0,-4.250415025E0,5.041820168E0,1.161983693E1
1.235903625E0,8.815308511E0,-6.711550485E0,4.364492741E0,1.190812206E1
1.245882625E0,6.009595170E0,-6.623730569E0,2.808561227E0,9.374276341E0
1.255861625E0,4.741007820E0,-4.039067708E0,3.679582644E0,7.233985867E0
1.265840625E0,4.256569512E0,-1.856143645E0,2.431898944E0,5.241925764E0
1.275819625E0,3.366162529E0,1.233233330E-1,-1.840195949E0,3.838304306E0
1.285798625E0,1.585288337E0,3.693645197E-1,-2.643377677E0,3.104354169E0
1.295777625E0,-1.114651796E0,-1.465569812E0,5.781038328E-1,1.929908688E0
1.305756625E0,-4.472750430E0,-2.104259424E0,1.365826546E0,5.128243977E0
1.315736625E0,-6.717791219E0,-1.427422577E0,1.366047571E0,7.002309622E0
1.325715625E0,-6.303942252E0,-9.020645767E-1,1.798615229E-1,6.370695298E0
1.335694625E0,-2.465125308E0,4.482266774E0,-2.302524766E0,5.609739612E0
1.345673625E0,7.009900571E0,9.016121192E0,-4.123292756E-1,1.142799907E1
1.355652625E0,9.914716616E0,6.313850943E0,3.867169508E0,1.237421995E1
1.365631625E0,6.778390592E0,3.719526143E0,-1.683853097E0,7.913078731E0
1.375610625E0,2.537194580E-1,2.791547291E0,-4.600022095E0,5.386772050E0
1.385589625E0,-5.454985596E0,1.243895143E0,-1.526773496E0,5.799584492E0
1.395568625E0,-9.670131678E0,-6.726888317E-1,9.132579017E-1,9.736426291E0
1.405547625E0,-1.144285368E1,-2.323499313E0,1.284163163E0,1.174677081E1
1.415526625E0,-1.108472108E1,-3.401448137E0,5.995313931E-1,1.161035438E1
1.425505625E0,-9.362071706E0,-3.739171034E0,-4.512939513E-2,1.008126100E1
1.435484625E0,-7.113365298E0,-6.951637745E-1,1.684016819E0,7.342964741E0
1.445463625E0,-3.662477199E0,3.774888166E0,3.522790725E0,6.330369214E0
1.455442625E0,1.940399684E0,5.404339353E0,4.521906803E0,7.308876515E0
1.465421625E0,4.827574094E0,1.775325769E0,4.109443041E0,6.583674910E0
1.475401625E0,5.489891135E0,-2.151664263E0,2.441058168E0,6.381796671E0
1.485380625E0,4.866793123E0,-2.361232565E0,1.264391972E0,5.555158107E0
1.495359625E0,2.568922157E0,-3.313932860E-1,-3.805399522E0,4.603286660E0
1.505338625E0,1.009873785E0,1.515762604E0,-6.957696630E0,7.192143194E0
1.515317625E0,6.097067177E-2,2.164370847E0,-6.056676950E0,6.432072315E0
1.525296625E0,5.406160176E-1,3.521578013E0,-5.396456137E0,6.466491801E0
1.535275625E0,-1.127715061E0,4.492232183E0,-5.928200759E0,7.522995114E0
1.545254625E0,-5.850889458E0,1.285168299E0,-6.433175658E0,8.790353466E0
1.555233625E0,-8.792464609E0,-1.642656539E0,-3.344453571E0,9.549404384E0
1.565212625E0,-7.784002342E0,3.487630248E-2,2.664958581E0,8.227631071E0
1.575191625E0,-6.187983779E0,1.611524209E0,2.874097112E0,7.010605376E0
1.585170625E0,-2.491804399E0,2.825934767E0,7.587756336E-2,3.768388763E0
1.595149625E0,5.313595244E0,5.826837521E0,-3.293865216E0,8.546103087E0
1.605128625E0,2.112726777E0,6.056507966E0,-3.421628047E0,7.269968478E0
1.615107625E0,-7.817294633E-1,4.644538702E0,-7.535043687E-2,4.710469021E0
1.625086625E0,-1.726962279E0,3.824946179E0,5.167289722E-1,4.228430065E0
1.635065625E0,-2.666254324E-1,4.219682937E0,-1.829455783E0,4.606921062E0
1.645045625E0,2.040506062E0,5.037808394E0,-3.745571980E0,6.600945982E0
1.655024625E0,2.699825528E0,4.000207697E0,-2.571845180E0,5.468556220E0
1.665003625E0,4.687309331E-1,1.637643136E0,3.140559407E0,3.572771630E0
1.674982625E0,-9.755921441E0,-4.653176794E0,1.255790835E1,1.656898064E1
1.684961625E0,-1.924552443E1,-4.503057134E0,8.398645864E0,2.147568361E1
1.694940625E0,-1.814880780E1,-5.401432117E0,-9.723700944E0,2.128626443E1
1.704919625E0,-9.929694843E0,-5.002071381E0,-2.476871663E1,2.714974919E1
1.714898625E0,-6.265964586E0,-2.915292501E0,-1.932792924E1,2.052632678E1
1.724877625E0,-4.717248829E0,-2.260297928E0,-8.236357563E0,9.756995907E0
1.734856625E0,-4.462560195E0,-3.387785532E0,-5.425291096E0,7.799058776E0
1.744835625E0,-4.518640840E0,-3.305936792E0,-2.941979047E-1,5.606593041E0
1.754814625E0,-3.211794574E0,-4.967765182E-1,8.294950172E0,8.908906198E0
1.764793625E0,3.671642125E-2,8.866607888E0,8.590937397E0,1.234594220E1
1.774772625E0,-7.884970307E-1,9.363197880E0,1.020525073E1,1.387221484E1
1.784751625E0,4.525195277E-1,2.254697465E0,1.206452848E1,1.228174589E1
1.794730625E0,2.487689713E0,-1.639255214E-1,8.431460438E0,8.792326018E0
1.804710625E0,1.572249046E0,-1.793044002E0,3.811357542E0,4.495933737E0
1.814689625E0,5.986630815E-1,-5.858284432E0,9.894351348E-1,5.971337861E0
1.824668625E0,-4.692226839E-1,-1.013446083E1,-2.169378403E-1,1.014763658E1
1.834647625E0,-6.120409262E-1,-8.874804515E0,-1.695542266E0,9.056026327E0
1.844626625E0,7.494692051E-1,-5.125541772E0,-2.903568249E0,5.938315512E0
1.854605625E0,2.088663438E0,-1.784233418E0,-3.759150385E0,4.655879666E0
1.864584625E0,1.796231319E0,6.531988925E-1,-3.226128146E0,3.749802470E0
1.874563625E0,1.290251284E0,3.862820933E0,-1.700417382E0,4.413338103E0
1.884542625E0,1.240924757E0,7.202660467E0,9.274634197E-1,7.367387627E0
1.894521625E0,1.361894878E0,8.170035519E0,5.292884406E0,9.829489477E0
1.904500625E0,-2.795033401E-1,5.704419630E0,9.327091323E0,1.093678006E1
1.914479625E0,3.768115336E-1,6.817009698E0,9.804648628E0,1.194758314E1
1.924458625E0,2.844908981E0,1.461867063E0,7.619064667E0,8.263214195E0
1.934437625E0,4.227680174E0,1.221825997E0,5.229081928E0,6.834430205E0
1.944416625E0,5.442278427E0,1.691936288E0,5.127566078E0,7.666353550E0
1.954395625E0,4.964619965E0,2.232583880E-2,5.365707968E0,7.310182750E0
1.964374625E0,4.223457022E0,-2.868150494E0,4.686001601E0,6.929825934E0
1.974353625E0,3.963353866E0,-3.354355831E0,3.427211846E0,6.221387140E0
1.984333625E0,4.369040120E0,-2.144805479E-1,1.460661660E0,4.611729173E0
1.994312625E0,2.484383990E0,1.261176004E0,1.582570551E0,3.204256274E0
2.004290750E0,5.059750655E-1,-1.649726992E0,1.510896259E0,2.293559988E0
2.014269750E0,1.920649543E-1,-1.119858742E-1,4.862567925E-1,5.346732189E-1
2.024248750E0,6.645696804E-1,-1.114748275E0,-6.656563854E-1,1.458566077E0
2.034227750E0,1.738392124E0,-2.511810647E0,-2.284344895E0,3.814371705E0
2.044206750E0,1.207631881E0,-1.885985495E0,1.086719647E-2,2.239516497E0
2.059615542E0,2.856566575E-1,-7.606332940E-1,-1.464916971E0,1.675155057E0
2.069593542E0,2.142856894E-1,-5.611110932E-1,-1.112584221E0,1.264360575E0
2.079570542E0,2.058146819E-1,-2.807733554E-1,-8.662462878E-1,9.335823432E-1
2.089547542E0,3.138215259E-1,-6.061340690E-2,-6.192429417E-1,6.968642307E-1
2.099524542E0,3.120726237E-1,1.264059851E-1,-4.764644605E-1,5.834262401E-1
2.109502542E0,1.425790912E-1,1.034255505E-1,-4.363660097E-1,4.705751121E-1
2.119479542E0,2.470214725E-2,-5.149584353E-2,-5.611736584E-1,5.640725954E-1
2.129456542E0,-2.990353793E-2,-2.116578045E-1,-7.731071591E-1,8.021146597E-1
2.139434542E0,-1.314785908E-1,-1.720990518E-1,-9.509344357E-1,9.752850888E-1
2.149411542E0,-2.320903149E-1,-2.261995375E-3,-1.197814406E0,1.220094415E0
2.159388542E0,-2.827288835E-1,1.397499159E-1,-1.352811229E0,1.389087427E0
2.169366542E0,-2.739097475E-1,2.107123098E-1,-1.309389805E0,1.354225937E0
2.179343542E0,-3.146790200E-1,3.074395823E-1,-9.221608722E-1,1.021725333E0
2.189320542E0,-4.087237363E-1,3.797222775E-1,-2.113376695E-1,5.965800124E-1
2.199298542E0,-6.384874441E-1,2.238588971E-1,5.506469160E-1,8.723480086E-1
2.209275542E0,-6.169711523E-1,3.942397445E-2,1.217634128E0,1.365591638E0
2.219252542E0,-5.587980808E-1,-1.703223753E-1,1.790606883E0,1.883490912E0
2.229230542E0,-5.047969978E-1,-5.670366615E-1,1.993169636E0,2.132856249E0
2.239207542E0,-4.589011057E-1,-7.746867844E-1,1.788793661E0,2.002626426E0
2.249184542E0,-4.402827671E-1,-4.768614864E-1,1.560510176E0,1.690099938E0
2.259162542E0,-4.550202356E-1,1.303636730E-1,1.306498942E0,1.389596196E0
2.269139542E0,-4.533827960E-1,5.970735160E-1,9.454228503E-1,1.206597327E0
2.279116542E0,-4.189537324E-1,7.671248728E-1,7.712781501E-1,1.165706989E0
2.289094542E0,-2.298546320E-1,6.526992479E-1,9.609460384E-1,1.184173445E0
2.299071542E0,1.861452332E-1,4.555708972E-1,1.445715884E0,1.527183456E0
2.309048542E0,6.236587590E-1,3.474234277E-1,2.152077076E0,2.267396972E0
2.319026542E0,9.059205231E-1,2.939442086E-1,2.737078723E0,2.898050229E0
2.329003542E0,1.047543302E0,1.495191514E-2,3.131722510E0,3.302310769E0
2.338980542E0,1.002008403E0,-6.569937354E-1,3.292009310E0,3.503282304E0
2.348957542E0,1.041694771E0,-1.279540939E0,3.349154148E0,3.733521999E0
2.358935542E0,1.078928671E0,-1.756189294E0,3.365252118E0,3.946290629E0
2.368912542E0,1.091925423E0,-2.029558613E0,3.210162908E0,3.951778738E0
2.378889542E0,1.176316825E0,-2.022126802E0,2.867987357E0,3.701090319E0
2.388867542E0,1.030235398E0,-1.768895001E0,2.248400599E0,3.040670938E0
2.398844542E0,8.687627833E-1,-1.512005768E0,1.480398644E0,2.287463739E0
2.408821542E0,6.797339956E-1,-1.362362655E0,9.416128045E-1,1.790168982E0
2.418799542E0,4.715351115E-1,-1.151445108E0,8.061755025E-1,1.482595744E0
2.428776542E0,2.652966526E-1,-9.044555032E-1,1.110877419E0,1.456870176E0
2.438753542E0,1.596667019E-1,-8.887510514E-1,1.457024984E0,1.714145178E0
2.448731542E0,1.775979196E-1,-1.208649589E0,1.556210133E0,1.978424835E0
2.458708542E0,3.027803747E-1,-1.552761446E0,1.441492440E0,2.140244032E0
2.468685542E0,3.809170099E-1,-1.702854209E0,1.075726882E0,2.049877691E0
2.478663542E0,4.165505268E-1,-1.695862401E0,5.591891134E-1,1.833618305E0
2.488640542E0,4.620418645E-1,-1.599872462E0,-9.408111513E-2,1.667910620E0
2.498617542E0,3.659517923E-1,-1.496203083E0,-7.929672271E-1,1.732437994E0
2.508595542E0,2.280987132E-1,-1.282687325E0,-1.283253336E0,1.828675729E0
2.518572542E0,1.351282766E-1,-1.001986476E0,-1.579838732E0,1.875667073E0
2.528549542E0,1.199819781E-1,-7.885046321E-1,-1.694289792E0,1.872632673E0
2.538526542E0,1.632488523E-1,-6.945062551E-1,-1.670324394E0,1.816307438E0
2.548504542E0,2.193824150E-1,-8.429708612E-1,-1.469291857E0,1.708082867E0
2.558481542E0,2.763289233E-1,-1.020259609E0,-1.323212623E0,1.693569895E0
2.568458542E0,3.190175079E-1,-1.105951139E0,-1.254412529E0,1.702483741E0
2.578436542E0,3.443514468E-1,-1.050002056E0,-1.350134958E0,1.744690988E0
2.588413542E0,3.018337105E-1,-8.362559187E-1,-1.480021498E0,1.726525756E0
2.598390542E0,1.927213043E-1,-5.716337425E-1,-1.607714748E0,1.717164333E0
2.608368542E0,7.359788015E-2,-3.441296911E-1,-1.733710551E0,1.769065902E0
2.618345542E0,-5.787661761E-2,-1.716268891E-1,-1.663143429E0,1.672976855E0
2.628322542E0,-1.879672256E-1,-5.479805857E-2,-1.475533760E0,1.488467125E0
2.638300542E0,-1.477781430E-1,8.022964597E-3,-1.473448058E0,1.480861887E0
2.648277542E0,-4.038233310E-3,1.549453676E-1,-1.433609809E0,1.441964444E0
2.658254542E0,2.457605204E-1,2.717019850E-1,-1.017942942E0,1.081863224E0
2.668232542E0,5.119631991E-1,1.499386892E-1,-6.032531458E-1,8.052963962E-1
2.678209542E0,6.819003890E-1,-6.388609350E-2,-2.550438523E-1,7.308330453E-1
2.688186542E0,7.895661210E-1,-2.214425352E-1,-6.033566415E-2,8.222480455E-1
2.698163542E0,8.918176237E-1,-3.025173962E-1,-8.073426068E-2,9.451843575E-1
2.708141542E0,9.150041726E-1,-3.337485445E-1,-1.669339138E-1,9.881739009E-1
2.718118542E0,9.236959125E-1,-3.048059964E-1,-3.734540623E-1,1.041915914E0
2.728095542E0,9.374598196E-1,-1.467431858E-1,-5.413463348E-1,1.092437792E0
2.738073542E0,8.176328292E-1,7.008004904E-2,-5.481355369E-1,9.868572458E-1
2.748050542E0,6.257000220E-1,2.345470226E-1,-3.875183702E-1,7.724527885E-1
2.758027542E0,4.356244366E-1,3.970078164E-1,-1.515949130E-1,6.085761035E-1
2.768005542E0,3.293837442E-1,4.657523614E-1,9.833262563E-3,5.705397498E-1
2.777981292E0,2.361987148E-1,4.136361283E-1,2.925151491E-1,5.589720852E-1
2.787958292E0,1.443807645E-1,2.517837372E-1,6.008622193E-1,6.672902383E-1
2.797936292E0,-3.282626867E-2,2.537106872E-2,7.214651352E-1,7.226570392E-1
2.807913292E0,-1.174575524E-1,-1.906373566E-1,8.574824810E-1,8.862364716E-1
2.817890292E0,-4.132037267E-2,-2.966076154E-1,8.721765339E-1,9.221579892E-1
2.827868292E0,5.765091509E-2,-2.513440266E-1,6.784647113E-1,7.258180297E-1
2.837845292E0,2.280228455E-1,-2.056652856E-1,4.070030469E-1,5.098471417E-1
2.847822292E0,5.144603987E-1,-1.418519899E-1,2.433201849E-2,5.342130062E-1
2.857799292E0,7.962942928E-1,-3.368230104E-2,-3.790282130E-1,8.825426247E-1
2.867777292E0,7.336232507E-1,4.758408549E-1,-1.067430267E0,1.379867736E0
2.877754292E0,2.343097718E-1,1.759613131E0,-7.327625406E-1,1.920437550E0
2.887731292E0,-1.982219262E-1,1.165872821E0,1.218922269E0,1.698329433E0
2.897709292E0,-5.718416110E-1,1.003189248E-1,1.795565906E0,1.887093966E0
2.907686292E0,-5.739634193E-1,-5.487828237E-1,2.258834955E0,2.394354182E0
2.917663292E0,-6.419761853E-1,-8.915670705E-1,2.675023978E0,2.891846909E0
2.927641292E0,-8.081901607E-1,-7.430852151E-1,2.428124712E0,2.664795788E0
2.937618292E0,-8.346179675E-1,-6.998488560E-1,1.938360760E0,2.223424837E0
2.951153625E0,-1.000829896E-1,5.941572171E-1,2.370373517E-1,6.474767252E-1
2.961130625E0,8.489367753E-2,1.400402302E-1,5.930889308E-2,1.741716032E-1
2.971108625E0,-3.106806940E-1,3.976153421E-1,-2.982898593E-2,5.054801898E-1
2.981085625E0,-4.556825790E-1,4.669215122E-1,4.992060363E-2,6.543350655E-1
2.991062625E0,-4.399105918E-1,4.418466049E-1,-2.707208222E-1,6.797348856E-1
3.001039625E0,-4.651243705E-1,4.695910585E-1,-3.948554564E-1,7.699138092E-1
3.011017625E0,-4.391232643E-1,4.064440531E-1,-1.284046218E0,1.416615933E0
3.020994625E0,-3.683608451E-1,6.779378772E-1,-1.453266394E0,1.645379193E0
3.030971625E0,-3.785630670E-1,1.027081263E0,-1.793804725E0,2.101414121E0
3.040949625E0,-1.092923543E-1,1.198744405E0,-1.887379471E0,2.238556284E0
3.050926625E0,-1.308869988E-2,1.629156195E0,-2.013061863E0,2.589737301E0
3.060903625E0,-1.787444124E-1,1.907148322E0,-1.713774469E0,2.570250420E0
3.070880625E0,4.258088619E-2,1.847693834E0,-1.686521766E0,2.502027438E0
3.080858625E0,4.166272715E-1,1.815888781E0,-1.476973345E0,2.377494608E0
3.090835625E0,3.912570798E-1,1.663779606E0,-1.373545455E0,2.192685978E0
3.100812625E0,-1.214112934E-1,1.030597779E0,-1.238712171E0,1.615945644E0
3.110790625E0,-5.893019816E-1,5.816851062E-1,-8.920553130E-1,1.217126563E0
3.120767625E0,-1.030368860E0,6.174801524E-1,-5.313464266E-1,1.313495623E0
3.130744625E0,-1.144788930E0,7.501818345E-1,-2.455877352E-1,1.390549465E0
3.140721625E0,-1.266822660E0,6.987656593E-1,-8.338772714E-2,1.449160658E0
3.150699625E0,-1.298280680E0,1.008607863E0,-5.159524620E-2,1.644835741E0
3.160676625E0,-1.064569809E0,1.340374347E0,-1.194597852E-1,1.715862148E0
3.170653625E0,-8.142949462E-1,1.632429174E0,-6.402601737E-1,1.933347966E0
3.180631625E0,-5.492716509E-1,1.778367783E0,-1.251563181E0,2.242922583E0
3.190608625E0,-3.131140128E-1,1.771648017E0,-1.820339974E0,2.559377796E0
3.200585625E0,-1.468817648E-1,1.494217807E0,-2.430795135E0,2.857100995E0
3.210562625E0,-3.704044470E-1,1.364456836E0,-1.711275369E0,2.219775957E0
3.220540625E0,-9.368824071E-1,9.553142926E-1,-4.644981337E-1,1.416380090E0
3.230517625E0,-1.107709982E0,4.529982685E-1,3.657784224E-1,1.251408282E0
3.240494625E0,-6.036098260E-1,1.020477710E0,1.061776010E0,1.591567741E0
3.250472625E0,-1.017350035E0,8.307023795E-1,1.186783049E0,1.770175568E0
3.260449625E0,-8.611060005E-1,3.342250925E-1,7.089415687E-1,1.164391732E0
3.270426625E0,-4.950860882E-1,7.220437172E-1,4.418816882E-1,9.806716018E-1
3.280403625E0,-5.501180354E-1,1.243655114E0,9.915123582E-2,1.363502425E0
3.290381625E0,-9.443709362E-1,1.644568140E0,-4.230928302E-1,1.943051305E0
3.300358625E0,-1.272086908E0,1.739186907E0,-7.386869395E-1,2.277857457E0
3.310335625E0,-1.508930717E0,1.408237424E0,-1.017165263E0,2.301006242E0
3.320313625E0,-1.534892355E0,1.171111487E0,-1.425953465E0,2.400154149E0
3.330290625E0,-1.454849527E0,1.080109808E0,-1.975033327E0,2.680294944E0
3.340267625E0,-1.596626088E0,1.030384940E0,-2.114807509E0,2.843117794E0
3.350245625E0,-1.840252082E0,7.448692006E-1,-1.674766524E0,2.597344945E0
3.360222625E0,-1.989111668E0,-1.641971245E-1,-5.014566296E-1,2.057907839E0
3.370199625E0,-1.809753006E0,-7.961179993E-1,-7.776182860E-1,2.124547013E0
3.380176625E0,-1.395779200E0,-6.184857273E-1,-1.479052615E0,2.125634213E0
3.390154208E0,-6.579029775E-1,-2.080461256E-1,-1.996354614E0,2.112238448E0
3.400131208E0,-1.554938364E-1,2.031465974E-1,-2.485347319E0,2.498479171E0
3.410108208E0,9.870567799E-2,4.494919856E-1,-2.646279650E0,2.685997365E0
3.420086208E0,-5.925275981E-2,2.229264124E-1,-2.863553998E0,2.872829367E0
3.430063208E0,-4.301498348E-1,-4.909328109E-1,-3.272293668E0,3.336757371E0
3.440040208E0,-5.361192164E-1,-1.074246220E0,-3.471774938E0,3.673506496E0
3.450017208E0,-3.930287862E-1,-1.352393737E0,-3.247679229E0,3.539895595E0
3.459995208E0,-3.802783477E-1,-1.331968536E0,-2.098127156E0,2.514137898E0
3.469972208E0,-9.212294108E-1,-1.307162162E0,-5.336554921E-1,1.685860234E0
3.479949208E0,-1.224856316E0,-1.187495970E0,1.079503013E0,2.018847798E0
3.489927208E0,-1.045995544E0,-7.974763075E-1,2.059072434E0,2.443328555E0
3.499904208E0,-6.806202874E-1,-6.314416954E-1,2.078995067E0,2.276880119E0
3.509881208E0,-5.127826864E-1,-1.130248805E0,1.551792562E0,1.987075389E0
3.519858208E0,-1.444081002E-1,-1.786472901E0,7.273345703E-1,1.934258179E0
3.529836208E0,5.527174151E-1,-1.950739461E0,-6.213333213E-1,2.120598048E0
3.539813208E0,8.800480556E-1,-2.645076878E0,-2.502554505E0,3.746157407E0
3.549790208E0,8.701048654E-1,-2.938577868E0,-3.150149426E0,4.394970281E0
3.559768208E0,8.666403902E-1,-4.054123119E-2,-7.731627077E-1,1.162105731E0
3.569745208E0,1.167408884E0,1.076673473E0,-1.922698992E-1,1.599699029E0
3.579722208E0,1.387697471E0,1.307963669E0,1.222823532E0,2.265341171E0
3.589699208E0,8.712515044E-1,1.276832070E0,2.415295921E0,2.867583252E0
3.599677208E0,7.731293786E-1,3.334276785E-1,2.260425398E0,2.412141379E0
3.609654208E0,6.117321932E-1,-2.620054376E-1,2.765197983E0,2.844148908E0
3.619631208E0,1.300409067E-1,-5.747336438E-1,2.709557633E0,2.772892347E0
3.629609208E0,4.991768003E-2,-1.619915548E-1,2.293952748E0,2.300207001E0
3.639586208E0,3.179142845E-1,8.666500381E-1,1.149528099E0,1.474302082E0
3.649563208E0,2.970847481E-1,1.755049964E0,1.376028183E0,2.249869615E0
3.659541208E0,-1.966471249E-1,1.909513229E0,2.705718936E0,3.317502950E0
3.669518208E0,-3.339093429E-1,1.711850735E0,3.449449684E0,3.865311308E0
3.679495208E0,-2.845331150E-1,1.519795575E0,3.719683433E0,4.028248071E0
3.689472208E0,-1.128600329E-1,1.473628299E0,3.719494568E0,4.002368998E0
3.699450208E0,2.850646269E-1,1.509407265E0,2.905323583E0,3.286407956E0
3.709427208E0,8.592693901E-1,1.770216034E0,1.811018343E0,2.674284227E0
3.719404208E0,1.299730205E0,1.817217415E0,7.661419559E-1,2.361895687E0
3.729382208E0,1.625140035E0,1.570677314E0,1.342836463E-1,2.264097935E0
3.739359208E0,1.947628596E0,1.551484706E0,-3.950080687E-1,2.521188870E0
3.749336208E0,2.233267420E0,1.368179612E0,-1.195575507E0,2.879027546E0
3.759313208E0,2.518212764E0,1.057891997E0,-2.256753346E0,3.543087166E0
3.769291208E0,2.796040877E0,8.895560668E-1,-3.388843294E0,4.482567729E0
3.779268208E0,2.950872223E0,6.661254783E-1,-4.286713078E0,5.246644551E0
3.789245208E0,2.754147915E0,3.186396316E-2,-4.221262270E0,5.040377089E0
3.799223208E0,2.370564137E0,-9.475908516E-1,-3.057107361E0,3.982889424E0
3.809200208E0,1.883757121E0,-1.856639197E0,-2.297793784E0,3.503641858E0
3.819177208E0,1.619210958E0,-1.160838953E0,-3.163041952E0,3.738211550E0
3.829154208E0,2.170709814E0,-8.075517909E-1,-2.781977738E0,3.619878607E0
3.839132208E0,2.690170605E0,-7.644461171E-1,-9.289728785E-1,2.946928292E0
3.849109208E0,2.859784298E0,-8.744728817E-1,-3.284117907E-1,3.008475254E0
3.859086208E0,3.023204035E0,-1.127698542E0,-9.116282827E-1,3.352988632E0
3.869064208E0,3.134860126E0,-1.601157095E0,-1.256112900E0,3.737495374E0
3.879041208E0,2.934028149E0,-2.198216286E0,-2.036267123E0,4.193692861E0
3.889018208E0,3.122668097E0,-2.078661191E0,-2.678162178E0,4.609169236E0
3.898995208E0,3.312019651E0,-1.749580771E0,-2.951706621E0,4.768970436E0
3.908973208E0,2.937736453E0,-1.454758895E0,-2.319910292E0,4.016043162E0
3.918950208E0,1.544474772E0,-1.283048099E0,2.866930765E-1,2.028252367E0
3.928927208E0,-4.581322700E-1,-1.861406724E0,3.930986019E0,4.373485024E0
3.938905208E0,-1.924707511E0,-2.872981171E0,5.455629374E0,6.459288791E0
3.948882208E0,-2.440570511E0,-2.924963796E0,6.114519947E0,7.204106593E0
3.958859208E0,-2.061296130E0,-1.948969948E0,6.615255615E0,7.197849154E0
3.968837208E0,-2.030877745E0,-7.927824551E-1,5.973835938E0,6.359220412E0
3.978814208E0,-2.089584959E0,3.336041182E-2,4.559681862E0,5.015792749E0
3.988791208E0,-2.031423874E0,4.774263275E-1,2.914474475E0,3.584519539E0
3.998768208E0,-1.956484205E0,6.119444472E-1,1.302472549E0,2.428732425E0
4.008746208E0,-2.112955111E0,7.054501963E-1,1.908063412E-2,2.227690138E0
4.018723208E0,-2.247030596E0,5.134709036E-1,-1.153277918E0,2.577372465E0
4.028700208E0,-2.576382034E0,-4.239348292E-2,-1.788616198E0,3.136668535E0
4.038678208E0,-3.583606446E0,-9.403965837E-1,-9.102597418E-1,3.815121714E0
4.048655208E0,-4.783586660E0,-2.572949719E0,1.256590617E0,5.575104624E0
4.058632208E0,-6.121707929E0,-3.442972139E0,3.318118297E0,7.767835873E0
4.068609208E0,-6.913793396E0,-2.673826468E0,4.550474837E0,8.698086476E0
4.078587208E0,-7.120812896E0,-1.113687006E0,4.580639453E0,8.539820422E0
4.088564208E0,-7.193649323E0,2.293318909E-1,4.035292745E0,8.251349662E0
4.098541208E0,-7.305153971E0,1.240962764E0,3.392987216E0,8.149700938E0
4.108519208E0,-6.994229448E0,1.874703292E0,2.414646588E0,7.633103966E0
4.118496208E0,-6.110777729E0,2.223366330E0,1.405409857E0,6.652829409E0
4.128473208E0,-4.985004528E0,2.490927901E0,4.054196209E-1,5.587428480E0
4.138450208E0,-3.848937889E0,2.717314550E0,-5.707521285E-1,4.745932915E0
4.148428208E0,-2.689367198E0,2.933306603E0,-1.067350453E0,4.120220933E0
4.158405208E0,-1.056115320E0,3.363519003E0,-1.240829594E0,3.737418592E0
4.168382208E0,-1.580788904E-1,3.240491831E0,-1.489952409E0,3.570116865E0
4.178360208E0,3.283825547E-1,2.822681960E0,-1.665044651E0,3.293591086E0
4.188337208E0,8.558920383E-1,2.193759538E0,-1.143636737E0,2.617830605E0
4.198314208E0,1.398573877E0,1.380474406E0,-6.220402497E-1,2.061225982E0
4.208291208E0,1.885372707E0,1.155071844E0,-4.243499815E-1,2.251420466E0
4.218269208E0,2.505299773E0,1.040541846E0,-8.082584269E-1,2.830642324E0
4.228246208E0,2.742349988E0,8.061679012E-1,-8.627812278E-1,2.985763150E0
4.238223208E0,2.791344393E0,4.842593837E-1,-3.860993971E-1,2.859227765E0
4.248201208E0,2.414590747E0,4.971308595E-1,2.607026415E-1,2.478982338E0
4.258178208E0,1.932139907E0,9.052618343E-1,6.752731548E-1,2.238003003E0
4.268155208E0,1.714434035E0,1.225979274E0,1.067853460E0,2.362756917E0
4.278132208E0,1.331025673E0,1.346238374E0,1.335770688E0,2.316952833E0
4.288110208E0,8.286177009E-1,1.331398140E0,1.315379254E0,2.046814814E0
4.298087208E0,4.833039486E-1,1.787678597E0,1.241829906E0,2.229690335E0
4.308064208E0,2.607741237E-2,2.498841523E0,9.822059298E-1,2.685073086E0
4.318042208E0,-5.153010821E-1,2.617430658E0,8.837188645E-1,2.810237977E0
4.328019208E0,-8.196667832E-1,2.551375247E0,1.045844686E0,2.876657852E0
4.337996208E0,-6.325523740E-1,3.152376046E0,7.395925270E-1,3.299180860E0
4.347974208E0,-8.740479353E-1,3.681867735E0,-1.447801293E-1,3.786960668E0
4.357951208E0,-1.670821407E0,3.579928547E0,-9.654605274E-1,4.066896434E0
4.367928208E0,-2.025911704E0,3.585719630E0,-5.731160116E-1,4.158144473E0
4.377905208E0,-3.011847865E0,3.112001022E0,-5.554439718E-1,4.366267963E0
4.387882958E0,-3.613258261E0,2.634936637E0,-4.685157555E-1,4.496446748E0
4.397859958E0,-3.506148965E0,2.464632972E0,-4.065515687E-1,4.304971595E0
4.407836958E0,-3.344346860E0,2.449538970E0,-3.766308546E-1,4.162541037E0
4.417814958E0,-3.479316384E0,2.240777584E0,-1.411284701E-1,4.140850629E0
4.427791958E0,-3.566758571E0,2.020094309E0,4.615886322E-1,4.124998399E0
4.437768958E0,-3.744137658E0,1.784090745E0,-2.148401517E-1,4.153035382E0
4.447745958E0,-4.543226920E0,1.141344336E0,-3.395022412E-1,4.696683885E0
4.457723958E0,-5.261615835E0,6.755814493E-1,3.920780289E-1,5.319279714E0
4.467700958E0,-5.594827021E0,1.078829414E0,9.069019783E-1,5.769612942E0
4.477677958E0,-5.699243090E0,1.942869548E0,1.627618670E0,6.237407828E0
4.487655958E0,-5.749757770E0,2.458819671E0,2.300102849E0,6.663030970E0
4.497632958E0,-5.974583212E0,2.369396448E0,2.587487066E0,6.928547712E0
4.507609958E0,-5.711022305E0,2.143828409E0,2.567651557E0,6.618505159E0
4.517586958E0,-4.985323786E0,2.262656111E0,2.172240615E0,5.889965638E0
4.527564958E0,-4.508292146E0,2.386380855E0,1.511274281E0,5.320099774E0
4.537541958E0,-4.174449169E0,2.377990100E0,8.031489837E-1,4.870925073E0
4.547518958E0,-4.093716370E0,1.997457983E0,1.990859985E-1,4.559384536E0
4.557496958E0,-4.359532548E0,1.194618317E0,-2.489732730E-1,4.527098922E0
4.567473958E0,-4.676986071E0,4.384049338E-1,-3.995717474E-1,4.714451737E0
4.577450958E0,-4.833185374E0,5.980649114E-2,-2.333577720E-1,4.839185213E0
4.587428958E0,-4.844766077E0,2.744542694E-1,1.738991171E-1,4.855648710E0
4.597405958E0,-5.078192773E0,7.014711660E-1,8.572181869E-1,5.197588543E0
4.607382958E0,-5.580099639E0,3.528005272E-1,1.776028605E0,5.866537121E0
4.617359958E0,-5.679750227E0,-4.594987643E-1,2.515766289E0,6.228947084E0
4.627337958E0,-5.019314235E0,-8.436041147E-1,3.093962946E0,5.956323531E0
4.637314958E0,-3.963190144E0,-3.198637462E-1,2.952736900E0,4.952559352E0
4.647291958E0,-3.191988008E0,6.648260808E-1,2.179345567E0,3.921776161E0
4.657269958E0,-2.688460879E0,1.706789385E0,1.336171807E0,3.453448567E0
4.667246958E0,-2.642608184E0,2.237476246E0,8.102697960E-1,3.556151727E0
4.677223958E0,-3.195018035E0,2.215444522E0,5.506768099E-1,3.926777257E0
4.687200958E0,-4.495844593E0,1.269398943E0,6.064673603E-1,4.710816802E0
4.697178958E0,-5.525853265E0,2.316707772E-1,6.741167217E-1,5.571638808E0
4.707155958E0,-5.982786856E0,4.091910750E-1,-8.431684971E-3,5.996769713E0
4.717132958E0,-5.938544483E0,-4.341633636E-1,3.428829478E0,6.871075607E0
4.727110958E0,-6.539908978E0,-1.496076198E0,1.755414830E0,6.934705088E0
4.737087958E0,-6.113575037E0,-1.195022360E0,2.015748074E0,6.547298562E0
4.747064958E0,-5.317158537E0,-1.069182093E0,2.371790298E0,5.919519784E0
4.757041958E0,-5.164308811E0,-9.568389541E-1,2.497701316E0,5.815852315E0
4.767019958E0,-5.222221389E0,-9.752810723E-1,2.733529463E0,5.974525315E0
4.776996958E0,-5.479398891E0,-1.443363549E0,2.756113164E0,6.301053111E0
4.786973958E0,-5.468151187E0,-1.853293712E0,2.619060861E0,6.339941228E0
4.796951958E0,-5.150293620E0,-1.925016244E0,2.549253877E0,6.060520377E0
4.806928958E0,-4.480830113E0,-1.751383175E0,2.572889493E0,5.455725604E0
4.816905958E0,-3.892770957E0,-2.078846548E0,2.720048123E0,5.184007184E0
4.826883958E0,-2.649282780E0,-2.576077979E0,2.979065158E0,4.746546768E0
4.836860958E0,-1.068626608E0,-2.401673078E0,3.115971866E0,4.076674756E0
4.846837958E0,6.853872299E-2,-2.168739302E0,3.248799555E0,3.906766728E0
4.856814958E0,8.612504268E-1,-2.122117113E0,3.211528233E0,3.944495777E0
4.866792958E0,1.573538942E0,-2.148785094E0,3.029609660E0,4.033836496E0
4.876769958E0,2.293292597E0,-2.068785828E0,2.851419271E0,4.203529184E0
4.886746958E0,2.985929205E0,-2.016769583E0,2.637953800E0,4.465639150E0
4.896724958E0,3.446415564E0,-2.084287966E0,2.300059580E0,4.638136548E0
4.906701958E0,3.812774030E0,-2.286087950E0,1.939619665E0,4.850316316E0
4.916678958E0,4.151439498E0,-2.584554395E0,1.494998556E0,5.113647623E0
4.926655958E0,4.404561371E0,-2.931267971E0,9.884155997E-1,5.382328324E0
4.936633958E0,4.327769887E0,-3.515872007E0,6.004763031E-1,5.608165472E0
4.946610958E0,4.202555857E0,-4.261734065E0,4.674269309E-1,6.003527372E0
4.956587958E0,4.324984859E0,-4.461315323E0,3.381081554E-1,6.222792425E0
4.966565958E0,4.546832314E0,-4.427343292E0,1.311040036E-1,6.347616952E0
4.976542958E0,4.887759485E0,-4.258200593E0,-1.128636874E-2,6.482483509E0
4.986519958E0,4.994517363E0,-4.050560410E0,-1.439420772E-1,6.432181795E0
4.996496958E0,5.001512387E0,-4.299280791E0,-9.040036596E-2,6.595992246E0
5.006474958E0,5.054384081E0,-4.716033193E0,1.195322907E-1,6.913903057E0
5.016451958E0,5.142258376E0,-5.341251404E0,1.999057051E-1,7.416990634E0
5.026428958E0,5.353986640E0,-5.942940420E0,-1.180209316E-2,7.998990753E0
5.036406958E0,5.412761682E0,-6.407215190E0,-3.367224383E-1,8.394270517E0
5.046383958E0,5.428325216E0,-6.649498079E0,-7.757828450E-1,8.618838575E0
5.056360958E0,5.000901938E0,-6.883793086E0,-1.025748975E0,8.570168517E0
5.066338958E0,4.571078963E0,-7.230710145E0,-9.670845184E-1,8.608901472E0
5.076315958E0,4.704529381E0,-6.930960236E0,-6.628883866E-1,8.402989200E0
5.086292958E0,4.727213654E0,-6.187586753E0,-2.935548571E-1,7.792236727E0
5.096269958E0,4.423893435E0,-5.805700421E0,1.108532685E-1,7.299950613E0
5.106247958E0,4.096984963E0,-5.540007620E0,8.795966506E-2,6.890914825E0
5.116224958E0,3.577440557E0,-5.926172944E0,-1.449746589E-1,6.923772408E0
5.126201958E0,3.101762547E0,-7.128182727E0,-3.947244787E-1,7.783811875E0
5.136179958E0,3.031890659E0,-8.183233854E0,-6.619048119E-1,8.751902379E0
5.146156958E0,3.281546302E0,-8.818680600E0,-8.326867783E-1,9.446218340E0
5.156133958E0,3.810501217E0,-8.932549862E0,-7.842566299E-1,9.742967979E0
5.166110958E0,3.923656535E0,-8.472270495E0,-6.874477887E-1,9.361999380E0
5.176088958E0,3.615804139E0,-7.886654890E0,-2.784256983E-1,8.680488799E0
5.186065958E0,2.979421254E0,-7.437517977E0,3.724787468E-1,8.020745918E0
5.196042958E0,1.975376558E0,-6.963957244E0,1.179243064E0,7.334127572E0
5.206020958E0,8.309747136E-1,-6.541961936E0,2.297611935E0,6.983323388E0
5.215997958E0,-1.113795179E-1,-5.881983197E0,3.159650567E0,6.677838230E0
5.225974958E0,-7.644100106E-1,-5.057446268E0,3.059770768E0,5.960225043E0
5.235951958E0,-9.871526742E-1,-4.639280009E0,2.074314955E0,5.176888249E0
5.245929958E0,-9.890641290E-1,-4.918821648E0,7.092649198E-1,5.067160051E0
5.255906958E0,-5.787498039E-1,-5.045905033E0,-4.747564888E-1,5.101127588E0
5.265883958E0,-1.636892939E-1,-4.468552714E0,-1.479488232E0,4.709951483E0
5.275861958E0,-6.281137526E-2,-3.599107999E0,-1.815794349E0,4.031703458E0
5.285838958E0,-1.117724508E-1,-2.516634015E0,-1.525305845E0,2.944910486E0
5.295815958E0,-1.622771913E-1,-1.383471104E0,-1.098359699E0,1.773899718E0
5.305793958E0,-2.056723022E-1,-4.258188021E-1,-5.944045544E-1,7.595653510E-1
5.315770958E0,-2.835443509E-1,4.607711184E-1,9.279297352E-2,5.489243649E-1
5.325747958E0,-4.402351123E-1,1.150040900E0,8.585583687E-1,1.501174040E0
5.335724958E0,-6.937037247E-1,1.881327018E0,1.426818852E0,2.460981155E0
5.345702958E0,-1.040175810E0,2.923617766E0,2.019623609E0,3.702483772E0
5.355679958E0,-1.232871972E0,3.690949631E0,2.367552820E0,4.555039938E0
5.365656958E0,-1.244448289E0,3.817583950E0,2.095969534E0,4.529424582E0
5.375634958E0,-1.177685950E0,3.636685715E0,1.414076600E0,4.075787019E0
5.385611958E0,-1.053093479E0,3.394983455E0,7.414702141E-1,3.631073755E0
5.395589583E0,-8.479439181E-1,3.065334393E0,2.636223024E-1,3.191360298E0
5.405566583E0,-5.884444875E-1,2.790417024E0,-7.078290263E-2,2.852666175E0
5.415544583E0,-7.365421808E-1,2.765606704E0,-4.080536088E-2,2.862296264E0
5.425521583E0,-1.015316958E0,2.741789825E0,2.525272290E-1,2.934629443E0
5.435498583E0,-1.350465910E0,2.986132688E0,5.268312067E-1,3.319382130E0
5.445476583E0,-1.803149160E0,3.399702743E0,7.527740514E-1,3.921223585E0
5.455453583E0,-2.283838234E0,3.869606627E0,1.032959762E0,4.610507390E0
5.465430583E0,-2.634477046E0,4.221579773E0,1.392861148E0,5.167423658E0
5.475408583E0,-2.905743121E0,4.065407075E0,1.809230264E0,5.314526500E0
5.485385583E0,-3.086152528E0,3.336080359E0,2.096930816E0,5.005086256E0
5.495362583E0,-3.120188001E0,2.523209209E0,2.191127706E0,4.572001586E0
5.505339583E0,-3.163867286E0,1.816293116E0,1.930915500E0,4.127639950E0
5.515317583E0,-3.710327011E0,1.505613007E0,1.707447782E0,4.353019065E0
5.525294583E0,-4.686525219E0,1.529433979E0,1.735143703E0,5.226223359E0
5.535271583E0,-5.530254464E0,1.990300992E0,1.784166759E0,6.142333718E0
5.545249583E0,-6.079732522E0,2.761445825E0,1.763885107E0,6.906520198E0
5.555226583E0,-6.826384538E0,3.644562500E0,1.641435640E0,7.910541868E0
5.565203583E0,-7.547014107E0,4.331016846E0,1.297707653E0,8.797680035E0
5.575181583E0,-8.061891850E0,4.381219286E0,8.044815642E-1,9.210666275E0
5.585158583E0,-8.502899380E0,3.700553682E0,2.995633463E-1,9.278099677E0
5.595135583E0,-8.593451115E0,2.979195551E0,-1.120098478E-1,9.095908663E0
5.605112583E0,-8.317045630E0,2.768791682E0,-2.724638772E-1,8.770045151E0
5.615090583E0,-7.886747861E0,3.096722247E0,-1.440976131E-1,8.474151557E0
5.625067583E0,-7.664330302E0,3.278902776E0,2.562536047E-1,8.340193541E0
5.635044583E0,-7.540910783E0,2.886164011E0,7.750250459E-1,8.111469778E0
5.645022583E0,-7.278925701E0,2.345521681E0,1.061901140E0,7.720872059E0
5.654999583E0,-7.169122592E0,1.789084852E0,1.092644558E0,7.469338356E0
5.664976583E0,-7.082553395E0,1.393634734E0,7.505369067E-1,7.257278141E0
5.674954583E0,-6.660921199E0,1.585076083E0,3.786941908E-2,6.847026472E0
5.684931583E0,-6.294904795E0,1.860587529E0,-7.549878804E-1,6.607391243E0
5.694908583E0,-6.034909521E0,1.694734181E0,-1.501782496E0,6.445743365E0
5.704885583E0,-5.786574179E0,1.234070066E0,-2.152653612E0,6.296132720E0
5.714863583E0,-5.802850488E0,6.123508286E-1,-2.545822731E0,6.366259554E0
5.724840583E0,-6.023709179E0,-7.110214233E-4,-2.506127154E0,6.524242952E0
5.734817583E0,-6.285520599E0,-3.676857841E-1,-1.943306335E0,6.589339993E0
5.744795583E0,-6.517326447E0,-5.436343503E-1,-1.005223348E0,6.616763280E0
5.754772583E0,-6.447087353E0,-6.399730754E-1,8.448291063E-2,6.479323903E0
5.764749583E0,-6.068591237E0,-8.012287581E-1,1.217709557E0,6.241200501E0
5.774727583E0,-5.566793130E0,-1.167845086E0,2.201842144E0,6.099275098E0
5.784704583E0,-4.931601908E0,-1.621870857E0,3.065741360E0,6.029090523E0
5.794681583E0,-4.251450275E0,-2.143731930E0,3.698621178E0,6.029113918E0
5.804659583E0,-3.478802707E0,-2.664031212E0,3.864999021E0,5.842717519E0
5.814636583E0,-2.618530519E0,-2.867072852E0,3.447720662E0,5.192647358E0
5.824613583E0,-1.702054895E0,-2.731106377E0,2.710634691E0,4.207549564E0
5.834590583E0,-8.383030289E-1,-2.435940685E0,2.020073259E0,3.273721883E0
5.844568583E0,-1.306817615E-1,-2.080858575E0,1.426794294E0,2.526418827E0
5.854545583E0,5.031371194E-1,-1.777134313E0,9.328156686E-1,2.069178194E0
5.864522583E0,1.055856289E0,-1.562601140E0,5.251998701E-1,1.957649031E0
5.874500583E0,1.415110973E0,-1.186079044E0,2.967625300E-1,1.870131162E0
5.884477583E0,1.635955630E0,-4.803212839E-1,2.854809487E-1,1.728744843E0
5.894454583E0,1.875065235E0,1.726367033E-1,4.238564035E-1,1.930110701E0
5.904432583E0,2.105901614E0,5.342010373E-1,6.711703098E-1,2.273908957E0
5.914409583E0,2.220193046E0,5.706525797E-1,1.106751550E0,2.545545231E0
5.924386583E0,2.392543235E0,4.029912722E-1,1.475071245E0,2.839454222E0
5.934363583E0,2.613463907E0,1.403764451E-1,1.580759668E0,3.057564434E0
5.944341583E0,2.741812044E0,-2.389979231E-1,1.457199231E0,3.114174512E0
5.954318583E0,2.807216075E0,-9.395265180E-1,1.317045565E0,3.240027961E0
5.964295583E0,3.032820366E0,-1.546756940E0,9.841945678E-1,3.543881396E0
5.974273583E0,2.996144291E0,-2.109706982E0,3.877124977E-1,3.684842621E0
5.984250583E0,2.825168781E0,-2.749348521E0,7.518349886E-3,3.942150740E0
5.994227583E0,2.839379854E0,-3.195591939E0,-2.851922424E-1,4.284299291E0
6.004205583E0,2.974025443E0,-3.436707432E0,-5.434870005E-1,4.577244086E0
6.014182583E0,3.114399549E0,-3.608360633E0,-6.709902155E-1,4.813520425E0
6.024159583E0,3.292396980E0,-3.987006731E0,-6.481493101E-1,5.211160914E0
6.034137583E0,3.618026665E0,-4.520987036E0,-5.353921882E-1,5.815159974E0
6.044114583E0,3.740605356E0,-5.251446358E0,-3.475421262E-1,6.456826063E0
6.054091583E0,3.605728217E0,-6.240712216E0,-6.612385947E-2,7.207783106E0
6.064068583E0,3.545388460E0,-7.226556283E0,4.257164393E-1,8.060653170E0
6.074046583E0,3.627569906E0,-7.786421335E0,9.420893526E-1,8.641478634E0
6.084023583E0,3.760798715E0,-7.879482111E0,1.396727911E0,8.841984741E0
6.094000583E0,3.993782192E0,-7.730506750E0,1.682315864E0,8.862348305E0
6.103978583E0,4.380921662E0,-7.352412338E0,1.760068045E0,8.737750358E0
6.113955583E0,4.652703170E0,-6.874213593E0,1.457298633E0,8.427703045E0
6.123932583E0,4.607403036E0,-7.011617314E0,7.223925036E-1,8.420973282E0
6.133910583E0,4.487694159E0,-7.433278745E0,-1.802111864E-3,8.682916274E0
6.143887583E0,4.358529750E0,-7.684507290E0,-7.911545902E-1,8.869856789E0
6.153864583E0,4.361193742E0,-7.629741683E0,-1.490015559E0,8.913647703E0
6.163842583E0,4.315828704E0,-7.248081638E0,-1.959387932E0,8.660269390E0
6.173819583E0,4.076502167E0,-6.704118090E0,-2.046191018E0,8.108635333E0
6.183796583E0,3.607606927E0,-6.109045783E0,-1.715329828E0,7.299152317E0
6.193773583E0,2.937923564E0,-5.701651558E0,-1.148589621E0,6.516094188E0
6.203751583E0,2.144452892E0,-5.566532929E0,-6.153562975E-1,5.996968436E0
6.213728583E0,1.417676146E0,-5.519048860E0,-4.203737835E-2,5.698374603E0
6.223705583E0,8.368090653E-1,-5.421451229E0,5.096854162E-1,5.509279632E0
6.233683583E0,4.292405927E-1,-5.412593867E0,9.334097457E-1,5.509235302E0
6.243660583E0,1.204339314E-1,-5.394067549E0,1.199839296E0,5.527212986E0
6.253637583E0,-2.059582311E-1,-5.128668863E0,1.306710026E0,5.296522839E0
6.263615583E0,-1.982258731E-1,-4.650135657E0,1.194356947E0,4.805158025E0
6.273592583E0,3.080430150E-2,-4.220032600E0,9.703267264E-1,4.330260732E0
6.283569583E0,2.931589276E-1,-3.833532815E0,8.040050161E-1,3.927892573E0
6.293546583E0,4.602010149E-1,-3.273506965E0,7.741947412E-1,3.395145111E0
6.303524583E0,5.377029347E-1,-2.564166616E0,9.221363870E-1,2.777482745E0
6.313501583E0,6.123601842E-1,-1.861455840E0,1.164529130E0,2.279502344E0
6.323478583E0,6.557055938E-1,-1.149088973E0,1.405848398E0,1.930483103E0
6.333456583E0,6.410893089E-1,-4.907872152E-1,1.596729584E0,1.789249272E0
6.343433583E0,5.680359507E-1,-5.978368700E-2,1.868300006E0,1.953659091E0
6.353410583E0,3.995145178E-1,4.407584381E-1,1.966858335E0,2.054850739E0
6.363388583E0,1.637717396E-1,1.042376118E0,1.882818643E0,2.158326944E0
6.373365583E0,-5.973164678E-2,1.763433117E0,1.714464440E0,2.460213923E0
6.383342583E0,-5.032335985E-1,2.438999364E0,1.515889488E0,2.915455864E0
6.393320000E0,-1.124449975E0,3.002939925E0,1.395926843E0,3.497234291E0
6.403297000E0,-1.567719208E0,3.594173534E0,1.207407932E0,4.102884451E0
6.413274000E0,-1.896905170E0,4.082456387E0,8.695242369E-1,4.584841521E0
6.423251000E0,-2.292624260E0,4.405242571E0,5.234778285E-1,4.993627654E0
6.433229000E0,-2.605783589E0,4.593128813E0,1.768361735E-1,5.283768677E0
6.443206000E0,-2.939181300E0,4.518061089E0,-1.498962969E-1,5.392043362E0
6.453183000E0,-3.223236698E0,4.340711530E0,-3.999086567E-1,5.421342853E0
6.463161000E0,-3.428909000E0,4.272452888E0,-6.172870481E-1,5.512922448E0
6.473138000E0,-3.626213352E0,4.293959532E0,-7.408077246E-1,5.668889470E0
6.483115000E0,-3.814544567E0,4.345654766E0,-7.138304257E-1,5.826235446E0
6.493093000E0,-4.055102820E0,4.532967396E0,-5.910167142E-1,6.110724429E0
6.503070000E0,-4.083015088E0,4.856970971E0,-4.672937240E-1,6.362353546E0
6.513047000E0,-4.100348867E0,4.899737506E0,-3.387590601E-1,6.398050184E0
6.523025000E0,-4.281579223E0,4.325921583E0,-4.492181897E-2,6.086668723E0
6.533002000E0,-4.500992774E0,3.655658761E0,2.735262797E-1,5.804962838E0
6.542979000E0,-4.735263808E0,3.099055871E0,5.180457286E-1,5.682890286E0
6.552956000E0,-5.177439319E0,2.547385692E0,7.114278048E-1,5.813878334E0
6.562934000E0,-5.711211171E0,2.049173682E0,9.067698312E-1,6.135085765E0
6.572911000E0,-6.174356259E0,1.686611229E0,1.155028574E0,6.503954463E0
6.582888000E0,-6.496875810E0,1.453865148E0,1.504317264E0,6.825400325E0
6.592866000E0,-6.496682267E0,1.366901849E0,2.001128281E0,6.933961028E0
6.602843000E0,-6.109774346E0,1.643080462E0,2.485580038E0,6.797585166E0
6.612820000E0,-5.537263522E0,2.120031996E0,2.703081257E0,6.516323446E0
6.622798000E0,-5.278049435E0,2.157002186E0,2.652761874E0,6.288689039E0
6.632775000E0,-5.292262262E0,1.515338096E0,2.522156126E0,6.055209403E0
6.642752000E0,-5.253613921E0,5.379935414E-1,2.317429903E0,5.767181082E0
6.652730000E0,-5.263931333E0,-5.627079678E-1,1.946983064E0,5.640598938E0
6.662707000E0,-5.098713577E0,-1.374320796E0,1.570823495E0,5.509366955E0
6.672684000E0,-4.780017812E0,-1.557643871E0,1.097524717E0,5.145812396E0
6.682661000E0,-4.601524538E0,-1.203574498E0,3.978281808E-1,4.772932736E0
6.692639000E0,-4.705526331E0,-7.114628881E-1,-2.313112100E-1,4.764626152E0
6.702616000E0,-4.907695566E0,-2.827058601E-1,-7.413328046E-1,4.971415563E0
6.712593000E0,-5.185883283E0,-4.935810149E-2,-1.162449861E0,5.314801156E0
6.722571000E0,-5.495230227E0,-8.568568289E-2,-1.446555544E0,5.683081930E0
6.732548000E0,-5.679987039E0,-3.914944768E-2,-1.515163264E0,5.878733295E0
6.742525000E0,-5.625586299E0,3.365534538E-1,-1.374461129E0,5.800830357E0
6.752503000E0,-5.422569802E0,8.232043487E-1,-1.100411560E0,5.593999844E0
6.762480000E0,-5.296233691E0,1.102274410E0,-7.123189205E-1,5.456418095E0
6.772457000E0,-5.219652708E0,1.109993320E0,-7.845443130E-2,5.336948066E0
6.782435000E0,-5.086294675E0,9.387353897E-1,5.898348822E-1,5.205720204E0
6.792412000E0,-4.810150561E0,6.997146624E-1,1.047250284E0,4.972311553E0
6.802389000E0,-4.389028242E0,3.301314569E-1,1.158937365E0,4.551449385E0
6.812366000E0,-4.037398328E0,-5.661274195E-2,1.044190582E0,4.170626359E0
6.822344000E0,-3.626274748E0,-3.365680718E-1,8.907180548E-1,3.749203284E0
6.832321000E0,-3.039245871E0,-3.193158621E-1,9.217444774E-1,3.191957231E0
6.842298000E0,-2.416242000E0,-4.968028307E-2,1.055669762E0,2.637258460E0
6.852276000E0,-1.832816763E0,1.928171986E-1,1.105856488E0,2.149259019E0
6.862253000E0,-1.200090142E0,4.832875764E-1,1.151805589E0,1.732177631E0
6.872230000E0,-5.805706269E-1,8.777629638E-1,1.124177495E0,1.539904255E0
6.882208000E0,-7.312469423E-2,1.267333122E0,1.057184703E0,1.652004830E0
6.892185000E0,3.184229922E-1,1.556230014E0,1.013276864E0,1.884137750E0
6.902162000E0,5.615215677E-1,1.622447977E0,9.159885514E-1,1.945939088E0
6.912140000E0,6.298369271E-1,1.355295711E0,9.220749182E-1,1.756058989E0
6.922117000E0,7.394459081E-1,9.888255626E-1,9.930022287E-1,1.584490350E0
6.932094000E0,1.034908639E0,6.345252246E-1,1.004558666E0,1.575689139E0
6.942071000E0,1.375661563E0,1.806953359E-1,9.457801151E-1,1.679165139E0
6.952049000E0,1.735757661E0,-2.427103204E-1,8.654112323E-1,1.954660983E0
6.962026000E0,2.054070725E0,-5.840286702E-1,7.204167295E-1,2.253729420E0
6.972003000E0,2.164136959E0,-1.089583613E0,5.036960767E-1,2.474750687E0
6.981981000E0,2.123101199E0,-1.855834912E0,3.441834490E-1,2.840799917E0
6.991958000E0,1.921245959E0,-2.831168025E0,1.385485689E-1,3.424309292E0
7.001935000E0,1.690837011E0,-3.849059511E0,5.862476885E-2,4.204476874E0
7.011913000E0,1.547707697E0,-4.742039854E0,1.792001846E-1,4.991438049E0
7.021890000E0,1.534493575E0,-5.527434937E0,5.410066116E-1,5.761935062E0
7.031867000E0,1.720457836E0,-6.082861367E0,1.002831398E0,6.400535008E0
7.041844000E0,2.119466570E0,-6.489169180E0,1.450386640E0,6.978902248E0
7.051822000E0,2.623842714E0,-6.989022503E0,1.643561103E0,7.644100944E0
7.061799000E0,3.122932391E0,-7.580953685E0,1.691400683E0,8.371642716E0
7.071776000E0,3.366036229E0,-8.293653844E0,1.924211082E0,9.155188817E0
7.081754000E0,3.479947007E0,-9.033580978E0,2.298121812E0,9.949722625E0
7.091731000E0,3.738931882E0,-9.431535459E0,2.696878531E0,1.049793439E1
7.101708000E0,4.229166536E0,-9.250534898E0,2.794702449E0,1.054839359E1
7.111686000E0,4.572562986E0,-8.843082785E0,2.518095235E0,1.026884848E1
7.121663000E0,4.821572512E0,-8.651148516E0,1.984631531E0,1.010092543E1
7.131640000E0,5.331891766E0,-8.715228152E0,1.198639448E0,1.028693385E1
7.141618000E0,6.100366176E0,-8.739861302E0,5.037107313E-1,1.067020935E1
7.151595000E0,6.695598112E0,-8.557942729E0,2.598244993E-1,1.086908122E1
7.161572000E0,7.052585830E0,-7.996124123E0,5.437724177E-1,1.067579769E1
7.171549000E0,7.086760467E0,-7.190819271E0,9.847320000E-1,1.014395154E1
7.181527000E0,6.522783068E0,-6.485294230E0,1.261043272E0,9.284178496E0
7.191504000E0,5.770430601E0,-6.204606829E0,1.487218251E0,8.602722438E0
7.201481000E0,4.883176437E0,-6.354908338E0,1.614542542E0,8.175391105E0
7.211459000E0,3.898714067E0,-6.744845116E0,1.568300421E0,7.946853039E0
7.221436000E0,2.896966158E0,-7.143667908E0,1.345762410E0,7.825310254E0
7.231413000E0,2.007925669E0,-7.170691400E0,1.202502191E0,7.542982976E0
7.241391000E0,1.302684218E0,-6.814156256E0,1.205096016E0,7.041446447E0
7.251368000E0,6.345831120E-1,-6.453562560E0,9.479587877E-1,6.553609029E0
7.261345000E0,8.276558340E-2,-6.036953123E0,5.742246803E-1,6.064766041E0
7.271322000E0,-2.289646858E-1,-5.286899196E0,1.599295342E-1,5.294270997E0
7.281300000E0,-3.120319855E-1,-4.278896520E0,-1.876968284E-1,4.294362524E0
7.291277000E0,-2.429336840E-1,-3.140743010E0,-3.336924112E-1,3.167749052E0
7.301254000E0,-6.706347048E-2,-1.938056704E0,-2.367175090E-1,1.953611138E0
7.311232000E0,2.016067332E-1,-8.735629088E-1,6.600337029E-3,8.965494938E-1
7.321209000E0,5.141608751E-1,-1.000078529E-1,4.635111237E-1,6.994322968E-1
7.331186000E0,8.414020532E-1,4.736817706E-1,9.583761871E-1,1.360447261E0
7.341164000E0,1.207730114E0,8.328101546E-1,1.382544905E0,2.015841064E0
7.351141000E0,1.549074776E0,8.656241441E-1,1.764618348E0,2.502561834E0
7.361118000E0,1.584839855E0,5.304652512E-1,1.813226252E0,2.465948132E0
7.371096000E0,1.392750050E0,2.612576884E-1,1.650622201E0,2.175445226E0
7.381073000E0,1.049124389E0,3.699743843E-1,1.489315063E0,1.858925062E0
7.391049708E0,5.291782790E-1,6.661042821E-1,1.220671829E0,1.487872401E0
7.401026708E0,-2.312953860E-1,1.081936040E0,8.346607983E-1,1.385908294E0
7.411004708E0,-1.022935295E0,1.837219716E0,3.182171702E-1,2.126742832E0
7.420981708E0,-1.602765664E0,2.672416120E0,-2.650987244E-1,3.127449924E0
7.430958708E0,-2.069690977E0,3.086138202E0,-7.058863986E-1,3.782346540E0
7.440936708E0,-2.435605055E0,3.464938958E0,-9.628241640E-1,4.343386276E0
7.450913708E0,-2.856789354E0,3.902178542E0,-1.149685389E0,4.970917348E0
7.460890708E0,-3.317791438E0,4.137370512E0,-1.280487603E0,5.455751395E0
7.470868708E0,-3.818487929E0,4.060539268E0,-1.338604249E0,5.732424491E0
7.480845708E0,-4.340547808E0,3.824729247E0,-1.234616781E0,5.915504009E0
7.490822708E0,-4.738066086E0,3.633855078E0,-9.728521389E-1,6.049844151E0
7.500799708E0,-5.081799336E0,3.507183922E0,-7.277374434E-1,6.217284402E0
7.510777708E0,-5.455371512E0,3.380682920E0,-3.884059775E-1,6.429693192E0
7.520754708E0,-5.727623135E0,3.272370851E0,5.670686385E-2,6.596763861E0
7.530731708E0,-6.211523500E0,3.099631237E0,4.635754430E-1,6.957416201E0
7.540709708E0,-6.740029934E0,2.813997091E0,9.301265341E-1,7.362860756E0
7.550686708E0,-7.207320113E0,2.598042460E0,1.362404171E0,7.781480127E0
7.560663708E0,-7.706444288E0,2.504226224E0,1.669088877E0,8.273227317E0
7.570641708E0,-8.074471550E0,2.513752508E0,1.931287383E0,8.674440238E0
7.580618708E0,-8.342435410E0,2.378346781E0,2.107428907E0,8.927150642E0
7.590595708E0,-8.537450577E0,2.066090847E0,2.327730943E0,9.087085621E0
7.600572708E0,-8.515418268E0,1.880394972E0,2.529401411E0,9.079983757E0
7.610550708E0,-8.360962313E0,1.711812143E0,2.542395093E0,8.905041517E0
7.620527708E0,-8.093935177E0,1.336943640E0,2.425633214E0,8.554700546E0
7.630504708E0,-7.813748882E0,8.859443879E-1,2.224871403E0,8.172491775E0
7.640482708E0,-7.386048446E0,5.679359633E-1,2.005517786E0,7.674526988E0
7.650459708E0,-6.866203492E0,5.231287497E-1,1.480635456E0,7.043486029E0
7.660436708E0,-6.455343622E0,7.527366292E-1,6.960759401E-1,6.536252399E0
7.670414708E0,-6.165299506E0,1.090348429E0,-1.948783422E-1,6.264004731E0
7.680391708E0,-6.169849809E0,1.282963899E0,-1.179273469E0,6.411218991E0
7.690368708E0,-6.461147568E0,1.365881510E0,-1.944754690E0,6.884339547E0
7.700345708E0,-6.882591484E0,1.378671709E0,-2.418496102E0,7.424279400E0
7.710323708E0,-7.599490528E0,1.163406465E0,-2.504803344E0,8.085778298E0
7.720300708E0,-8.070921121E0,1.052300597E0,-1.999205132E0,8.381164921E0
7.730277708E0,-8.011300571E0,1.269045187E0,-1.366356888E0,8.225469207E0
7.740255708E0,-7.792966708E0,1.339168505E0,-7.208168252E-1,7.939979804E0
7.750232708E0,-7.345381646E0,1.211256570E0,7.878648005E-2,7.444997066E0
7.760209708E0,-6.912350303E0,8.721741951E-1,8.889568003E-1,7.023639991E0
7.770187708E0,-6.386735317E0,2.851324546E-1,1.494611471E0,6.565481854E0
7.780164708E0,-5.728272761E0,-3.080313206E-1,1.670600967E0,5.974855623E0
7.790141708E0,-4.936258045E0,-9.618032402E-1,1.747713463E0,5.324116012E0
7.800118708E0,-4.098432149E0,-1.614385836E0,1.711080072E0,4.725588082E0
7.810096708E0,-3.125838457E0,-1.930656468E0,1.483139234E0,3.962070475E0
7.820073708E0,-2.007640910E0,-1.871049367E0,1.187299358E0,2.990171821E0
7.830050708E0,-9.807517272E-1,-1.667512468E0,9.306065905E-1,2.146741812E0
7.840028708E0,-1.565434116E-1,-1.339576641E0,6.584485227E-1,1.500841722E0
7.850005708E0,5.386314726E-1,-8.856666452E-1,4.340761670E-1,1.123811100E0
7.859982708E0,1.065348074E0,-4.788963175E-1,2.855124506E-1,1.202424867E0
7.869960708E0,1.355018553E0,-3.239930499E-1,2.414116538E-1,1.413975375E0
7.879937708E0,1.580602963E0,-3.503867966E-1,4.852282308E-1,1.690125164E0
7.889914708E0,1.791132547E0,-3.640587562E-1,8.302940246E-1,2.007506600E0
7.899891708E0,1.961694074E0,-5.228662097E-1,1.165982748E0,2.341185273E0
7.909869708E0,2.179863630E0,-9.559437454E-1,1.603955573E0,2.870245176E0
7.919846708E0,2.591823946E0,-1.227567378E0,1.807942123E0,3.390151583E0
7.929823708E0,3.000471815E0,-1.151498610E0,1.721962325E0,3.646084806E0
7.939801708E0,3.152208230E0,-1.038381885E0,1.513637141E0,3.647704903E0
7.949778708E0,3.047990382E0,-1.043126315E0,1.164167773E0,3.425440772E0
7.959755708E0,2.831451030E0,-1.305395572E0,7.361679590E-1,3.203609807E0
7.969733708E0,2.519624282E0,-1.876217721E0,3.852344477E-1,3.164981048E0
7.979710708E0,2.298791903E0,-2.474561545E0,9.717129551E-2,3.378955654E0
7.989687708E0,2.389728971E0,-2.891894575E0,-4.681631684E-2,3.751806305E0
7.999664708E0,2.683647451E0,-3.168207382E0,-1.624859369E-1,4.155226027E0
8.009642708E0,2.976943789E0,-3.601322340E0,-2.203009395E-1,4.677632886E0
8.019619708E0,3.237065948E0,-4.330177186E0,-1.903367367E-1,5.409737377E0
8.029596708E0,3.417870042E0,-5.152574034E0,-2.008699109E-1,6.186372404E0
8.039574708E0,3.434339894E0,-6.077829253E0,-2.183338630E-1,6.984437602E0
8.049551708E0,3.369965558E0,-7.145548958E0,-1.893305039E-1,7.902618794E0
8.059528708E0,3.293500934E0,-8.220605164E0,-7.868715048E-2,8.856166740E0
8.069506708E0,3.363099757E0,-8.970186635E0,2.617915392E-2,9.579946430E0
8.079483708E0,3.589098735E0,-9.354577914E0,1.635933995E-1,1.002080438E1
8.089460708E0,3.871894058E0,-9.558774379E0,4.084543258E-1,1.032126766E1
8.099437708E0,4.320716391E0,-9.523791658E0,6.776572108E-1,1.048000081E1
8.109415708E0,4.891063746E0,-9.161895202E0,8.463178074E-1,1.042012870E1
8.119392708E0,5.469260404E0,-8.497939771E0,1.038973038E0,1.015909714E1
8.129369708E0,5.927585632E0,-7.620676160E0,1.148535826E0,9.722659672E0
8.139347708E0,6.297879859E0,-6.853750677E0,1.121852058E0,9.375272855E0
8.149324708E0,6.249059701E0,-6.313982506E0,9.864919388E-1,8.938136751E0
8.159301708E0,5.818353796E0,-6.189378340E0,8.797931170E-1,8.540238935E0
8.169279708E0,5.162652880E0,-6.610757352E0,6.761632472E-1,8.415004115E0
8.179256708E0,4.270126281E0,-7.171231683E0,2.699600995E-1,8.350653912E0
8.189233708E0,3.212674872E0,-7.876236906E0,-1.118876410E-1,8.506991623E0
8.199211708E0,2.268850651E0,-8.541516731E0,-2.365713286E-1,8.840879896E0
8.209188708E0,1.626400110E0,-8.668170345E0,-3.253051651E-1,8.825427916E0
8.219165708E0,1.270476585E0,-8.187540329E0,-2.749699938E-1,8.290086603E0
8.229142708E0,8.403513086E-1,-7.532449277E0,9.733275175E-2,7.579805809E0
8.239120708E0,4.053716737E-1,-6.980261035E0,7.728405261E-1,7.034603954E0
8.249097708E0,2.344265699E-1,-6.261147065E0,1.430867465E0,6.426842155E0
8.259074708E0,2.477336633E-1,-5.362977319E0,1.845768346E0,5.677125899E0
8.269052708E0,3.995683122E-1,-4.395875332E0,2.129524366E0,4.900841641E0
8.279029708E0,6.357636648E-1,-3.464685774E0,2.319961163E0,4.217874198E0
8.289006708E0,9.072808778E-1,-2.529519525E0,2.348233620E0,3.568729291E0
8.298984708E0,1.180027760E0,-1.603891838E0,2.250469344E0,3.004920433E0
8.308961708E0,1.406477559E0,-7.622746074E-1,2.059733169E0,2.608015036E0
8.318938708E0,1.562864265E0,5.901419342E-2,1.816643364E0,2.397127552E0
8.328916708E0,1.561824045E0,7.500714684E-1,1.556526468E0,2.329093429E0
8.338893708E0,1.336226186E0,1.319690260E0,1.346627798E0,2.310949855E0
8.348870708E0,1.124692050E0,1.876664448E0,1.142355319E0,2.468152616E0
8.358847708E0,8.746066368E-1,2.198801007E0,8.544653177E-1,2.515904135E0
8.368825708E0,6.962180275E-1,2.406238584E0,6.952362800E-1,2.599626348E0
8.378802708E0,4.546701336E-1,2.604604205E0,6.167783403E-1,2.714977628E0
8.388784000E0,1.168495882E-1,2.662138469E0,4.674445091E-1,2.705390808E0
8.398762000E0,-1.587109745E-1,2.879827384E0,1.759812741E-1,2.889561272E0
8.408739000E0,-3.499336374E-1,3.330424932E0,-2.396341733E-1,3.357321598E0
8.418716000E0,-5.237660962E-1,3.744063399E0,-6.718321415E-1,3.839752607E0
8.428694000E0,-7.975350720E-1,3.894225159E0,-9.512694812E-1,4.087293164E0
8.438671000E0,-1.094592338E0,3.753323050E0,-8.468580902E-1,4.000341851E0
8.448648000E0,-1.547495443E0,3.494646322E0,-2.891606380E-1,3.832872153E0
8.458626000E0,-1.996489100E0,3.239201351E0,7.187262263E-1,3.872332825E0
8.468603000E0,-2.485403160E0,2.587868890E0,1.542758614E0,3.905687954E0
8.478580000E0,-3.123027701E0,1.441288957E0,1.999716178E0,3.978627988E0
8.488558000E0,-4.075990243E0,2.460069805E-1,2.312752715E0,4.692871298E0
8.498535000E0,-5.344236993E0,-8.065082091E-1,2.430311571E0,5.926022178E0
8.508512000E0,-6.404907879E0,-1.248291079E0,2.237986708E0,6.898525934E0
8.518490000E0,-6.986328106E0,-6.294720608E-1,1.711629710E0,7.220435703E0
8.528467000E0,-7.299327221E0,5.125762796E-1,1.298311670E0,7.431589703E0
8.538444000E0,-7.827761149E0,1.079010678E0,1.450574335E0,8.033820670E0
8.548421000E0,-8.370002693E0,1.343943341E0,1.916082868E0,8.691058758E0
8.558399000E0,-8.788066918E0,1.467483898E0,2.327840871E0,9.208825781E0
8.568376000E0,-9.065662896E0,1.467610198E0,2.483078599E0,9.513453777E0
8.578353000E0,-9.222461831E0,1.324084443E0,2.463124391E0,9.637114900E0
8.588331000E0,-9.563221772E0,9.232256502E-1,2.431556443E0,9.910601545E0
8.598308000E0,-9.850289655E0,4.765112382E-1,2.487075756E0,1.017058578E1
8.608285000E0,-9.791966017E0,4.470482880E-1,2.436997862E0,1.010056480E1
8.618263000E0,-9.424868463E0,1.061491835E0,2.201722276E0,9.736657098E0
8.628240000E0,-8.700551641E0,2.064067710E0,1.701613430E0,9.102497604E0
8.638217000E0,-7.949159871E0,3.048430093E0,8.698382324E-1,8.557960460E0
8.648195000E0,-7.457642924E0,3.497031986E0,-2.603461075E-1,8.240961763E0
8.658172000E0,-7.236097770E0,3.333330413E0,-1.335328639E0,8.078075585E0
8.668149000E0,-7.088269048E0,2.967637360E0,-2.244757930E0,8.005583537E0
8.678126000E0,-6.899238507E0,2.576074471E0,-2.963273583E0,7.938302210E0
8.688104000E0,-6.908243219E0,2.106603865E0,-3.418268237E0,7.990379337E0
8.698081000E0,-6.988017951E0,1.577976394E0,-3.294927070E0,7.885362946E0
8.708058000E0,-6.775885645E0,1.292260972E0,-2.640969794E0,7.386290419E0
8.718036000E0,-6.453768382E0,1.122287675E0,-1.799847968E0,6.793387128E0
8.728013000E0,-6.074926111E0,8.535227466E-1,-8.398751990E-1,6.191818689E0
8.737990000E0,-5.717698656E0,5.099152118E-1,7.511581734E-2,5.740882670E0
8.747968000E0,-5.181738777E0,1.406892711E-1,6.548409368E-1,5.224847067E0
8.757945000E0,-4.487982427E0,-2.772819829E-1,9.167342176E-1,4.589038373E0
8.767922000E0,-3.734615760E0,-6.480118275E-1,9.486024930E-1,3.907316329E0
8.777900000E0,-2.921371851E0,-9.073451972E-1,9.163925209E-1,3.193346842E0
8.787877000E0,-2.146450886E0,-1.014501856E0,9.317503059E-1,2.550416447E0
8.797854000E0,-1.518761641E0,-1.115014324E0,8.962758332E-1,2.086433376E0
8.807832000E0,-1.110721298E0,-1.219726261E0,9.025603475E-1,1.880438549E0
8.817809000E0,-9.162160081E-1,-1.237093077E0,1.148714751E0,1.920780215E0
8.827786000E0,-6.555833870E-1,-1.288756151E0,1.572138534E0,2.135954485E0
8.837763000E0,-2.946581537E-1,-1.218326438E0,1.933366653E0,2.304137442E0
8.847741000E0,9.738596141E-2,-1.124447637E0,2.272550769E0,2.537391083E0
8.857718000E0,5.623834473E-1,-9.989927012E-1,2.469967387E0,2.723049844E0
8.867695000E0,1.051189626E0,-8.758965325E-1,2.583577033E0,2.923536326E0
8.877673000E0,1.477675595E0,-9.499158508E-1,2.663738852E0,3.190825905E0
8.887650000E0,1.862924661E0,-1.100260629E0,2.624108763E0,3.401030512E0
8.897627000E0,2.158094446E0,-1.226364021E0,2.470034630E0,3.501772612E0
8.907605000E0,2.344210151E0,-1.575540444E0,2.209881481E0,3.586255022E0
8.917582000E0,2.401224012E0,-2.084233587E0,1.803465495E0,3.655460873E0
8.927559000E0,2.421694529E0,-2.602003949E0,1.411879216E0,3.824713305E0
8.937537000E0,2.560698048E0,-3.063198990E0,1.178816217E0,4.162928082E0
8.947514000E0,2.903067727E0,-3.271417755E0,9.070025504E-1,4.466836686E0
8.957491000E0,3.220984350E0,-3.375529768E0,6.640776372E-1,4.712742356E0
8.967468000E0,3.441293988E0,-3.629206834E0,4.760673980E-1,5.023971210E0
8.977446000E0,3.504236341E0,-4.222191685E0,4.161580324E-1,5.502705013E0
8.987423000E0,3.649402240E0,-4.918971337E0,3.891140753E-1,6.137249016E0
8.997400000E0,3.666596562E0,-5.422546998E0,2.091899872E-1,6.549176035E0
9.007378000E0,3.523512856E0,-6.026039879E0,2.236396265E-1,6.984147347E0
9.017355000E0,3.431202863E0,-6.521380906E0,4.595759475E-1,7.383276513E0
9.027332000E0,3.430831565E0,-6.699789396E0,6.912110567E-1,7.558806513E0
9.037310000E0,3.494058677E0,-6.775504407E0,1.068309689E0,7.697869289E0
9.047287000E0,3.788723263E0,-6.762349341E0,1.505810058E0,7.896281182E0
9.057264000E0,4.203867972E0,-6.564341569E0,1.737566789E0,7.986377434E0
9.067242000E0,4.433921995E0,-6.652153884E0,1.941186719E0,8.226726046E0
9.077219000E0,4.565226485E0,-6.917757808E0,2.256939873E0,8.590136409E0
9.087196000E0,4.808433233E0,-7.013693075E0,2.450068728E0,8.849619059E0
9.097173000E0,5.220917460E0,-6.791704702E0,2.476010485E0,8.917166580E0
9.107151000E0,5.626002620E0,-6.814891836E0,2.176935929E0,9.101302449E0
9.117128000E0,5.899668100E0,-7.016720763E0,1.841481167E0,9.350481638E0
9.127105000E0,6.081332905E0,-7.143074416E0,1.490438898E0,9.498817301E0
9.137083000E0,6.165607654E0,-7.172756052E0,1.172776043E0,9.530926019E0
9.147060000E0,6.018606899E0,-7.336614915E0,9.100676608E-1,9.532983298E0
9.157037000E0,5.763595791E0,-7.678700420E0,7.889729941E-1,9.633480937E0
9.167015000E0,5.456903483E0,-8.172327628E0,7.711267072E-1,9.856945311E0
9.176992000E0,5.090959584E0,-8.665151428E0,6.260941243E-1,1.006949416E1
9.186969000E0,4.752195298E0,-8.638452457E0,5.094193679E-1,9.872473301E0
9.196946000E0,4.303855360E0,-8.302007176E0,5.341443193E-1,9.366525731E0
9.206924000E0,3.759231076E0,-7.918645592E0,4.123988575E-1,8.775354073E0
9.216901000E0,3.084784572E0,-7.256725577E0,3.564100134E-1,7.893224313E0
9.226878000E0,2.374226248E0,-6.437553468E0,3.654334366E-1,6.871141574E0
9.236856000E0,1.797567993E0,-5.533325422E0,3.365552080E-1,5.827710556E0
9.246833000E0,1.339429876E0,-4.746571154E0,1.948099297E-1,4.935783729E0
9.256810000E0,1.085693461E0,-4.029536746E0,-1.240428329E-2,4.173254191E0
9.266788000E0,9.649022645E-1,-3.388287224E0,-2.285454404E-1,3.530405035E0
9.276765000E0,8.802322429E-1,-2.874174880E0,-4.250685313E-1,3.035848037E0
9.286742000E0,7.737866056E-1,-2.492436483E0,-5.598714104E-1,2.669164912E0
9.296720000E0,7.031978488E-1,-2.048024704E0,-5.557451034E-1,2.235563693E0
9.306697000E0,6.552652985E-1,-1.537072197E0,-3.339964664E-1,1.703971006E0
9.316674000E0,5.152414405E-1,-1.051706520E0,6.895044006E-2,1.173164315E0
9.326652000E0,3.001276392E-1,-5.103724641E-1,5.654905846E-1,8.187406507E-1
9.336629000E0,2.694923222E-2,1.707153082E-2,1.107974203E0,1.108433369E0
9.346606000E0,-2.823263758E-1,4.272718352E-1,1.502106432E0,1.587007604E0
9.356583000E0,-6.041027462E-1,8.278289115E-1,1.726355338E0,2.007621376E0
9.366561000E0,-9.209902596E-1,1.122030398E0,1.808791723E0,2.319246164E0
9.376538000E0,-1.182287124E0,1.321258484E0,1.732975556E0,2.479260192E0
9.386515000E0,-1.424304550E0,1.543645636E0,1.458274534E0,2.556961071E0
9.396489208E0,-1.606731246E0,1.791873389E0,1.137133756E0,2.661854376E0
9.406466208E0,-1.818035586E0,1.979543869E0,7.897973784E-1,2.801361673E0
9.416443208E0,-2.210897142E0,2.135331236E0,3.498727532E-1,3.093560506E0
9.426421208E0,-2.804839182E0,2.025680739E0,-1.462412754E-1,3.462931100E0
9.436398208E0,-3.339174705E0,1.856434836E0,-4.516764323E-1,3.847135248E0
9.446375208E0,-3.864417223E0,2.006003104E0,-7.167693094E-1,4.412655343E0
9.456352208E0,-4.372860106E0,2.280801190E0,-8.598261912E-1,5.006322069E0
9.466330208E0,-4.567950118E0,2.701175650E0,-8.060720068E-1,5.367706237E0
9.476307208E0,-4.706496969E0,3.290449272E0,-7.509834878E-1,5.791558195E0
9.486284208E0,-5.027150674E0,3.805298949E0,-6.302251822E-1,6.336381284E0
9.496262208E0,-5.327041501E0,4.147074552E0,-4.600501567E-1,6.766627272E0
9.506239208E0,-5.600191841E0,4.252227370E0,-3.942227876E-1,7.042655598E0
9.516216208E0,-5.803673776E0,4.062259519E0,-4.001927948E-1,7.095402453E0
9.526194208E0,-6.023833140E0,3.629064454E0,-4.745770524E-1,7.048538706E0
9.536171208E0,-6.220614751E0,2.964157682E0,-4.655062667E-1,6.906444435E0
9.546148208E0,-6.372240654E0,2.204553498E0,-3.664023203E-1,6.752759269E0
9.556126208E0,-6.318696531E0,1.459003682E0,-6.048425652E-2,6.485235226E0
9.566103208E0,-6.314878884E0,5.241759861E-1,2.773030329E-1,6.342661331E0
9.576080208E0,-6.286737989E0,-4.644554490E-1,6.445350000E-1,6.336735656E0
9.586057208E0,-6.148614476E0,-1.228643265E0,9.913936597E-1,6.348061566E0
9.596035208E0,-5.954231393E0,-1.657574540E0,1.170486274E0,6.290505779E0
9.606012208E0,-5.743981891E0,-1.682494789E0,1.191568995E0,6.102782426E0
9.615989208E0,-5.515021298E0,-1.038397672E0,1.157983757E0,5.730153229E0
9.625967208E0,-5.560881010E0,2.098133004E-1,1.082670523E0,5.669179367E0
9.635944208E0,-5.888401685E0,1.500170419E0,8.352567027E-1,6.133631832E0
9.645921208E0,-6.197356281E0,2.379760053E0,5.207476904E-1,6.658953442E0
9.655899208E0,-6.668236066E0,2.807327757E0,3.637202024E-1,7.244222094E0
9.665876208E0,-6.986777757E0,2.973752378E0,3.587594978E-1,7.601774464E0
9.675853208E0,-7.189259233E0,3.022607619E0,3.335210878E-1,7.805949107E0
9.685831208E0,-7.289119152E0,2.954874642E0,3.335538322E-1,7.872344017E0
9.695808208E0,-7.218721599E0,2.775684965E0,4.316870677E-1,7.746013315E0
9.705785208E0,-7.045325927E0,2.508895810E0,5.900956681E-1,7.501958978E0
9.715762208E0,-6.866241499E0,2.211493558E0,7.638544520E-1,7.253926503E0
9.725740208E0,-6.735012438E0,1.806897810E0,1.040172229E0,7.050335489E0
9.735717208E0,-6.392034649E0,1.448645924E0,1.383190438E0,6.698499664E0
9.745694208E0,-5.877188480E0,1.472906606E0,1.689980979E0,6.290217326E0
9.755672208E0,-5.301245340E0,1.664474840E0,2.034769651E0,5.917260023E0
9.765649208E0,-4.670438944E0,1.842638331E0,2.142777080E0,5.458920183E0
9.775626208E0,-4.200342979E0,2.017884647E0,1.996194985E0,5.069470781E0
9.785604208E0,-3.834667760E0,2.105833787E0,1.870588607E0,4.757973781E0
9.795581208E0,-3.502181044E0,2.214787880E0,1.666879215E0,4.466435238E0
9.805558208E0,-3.027692066E0,2.323747235E0,1.529566126E0,4.111726278E0
9.815536208E0,-2.459990283E0,2.484349199E0,1.398347590E0,3.765490555E0
9.825513208E0,-1.896717474E0,2.585553977E0,1.258181645E0,3.444654931E0
9.835490208E0,-1.438253667E0,2.462244385E0,1.155429620E0,3.076725310E0
9.845467208E0,-1.187965940E0,2.014060568E0,1.129531133E0,2.596833384E0
9.855445208E0,-1.111164517E0,1.248548357E0,1.015879972E0,1.955906874E0
9.865422208E0,-1.412813017E0,3.094738287E-1,8.728483059E-1,1.689283527E0
9.875399208E0,-1.503829021E0,-4.767375255E-1,1.159425608E0,1.957817186E0
9.885377208E0,-1.003102709E0,-5.880924851E-1,1.217940522E0,1.683878538E0
9.895354208E0,-2.254054856E-1,-3.269213355E-1,1.062787578E0,1.134549527E0
9.905331208E0,5.268452400E-1,-2.872251731E-1,9.725743961E-1,1.142788328E0
9.915309208E0,1.138465751E0,-4.446135074E-1,8.226973220E-1,1.473301165E0
9.925286208E0,1.714916430E0,-8.819940090E-1,6.171876454E-1,2.024789467E0
9.935263208E0,2.259667599E0,-1.494942423E0,2.890557902E-1,2.724794259E0
9.945240208E0,2.576952723E0,-2.338564079E0,-1.187938605E-1,3.481907418E0
9.955218208E0,2.818060321E0,-3.379777771E0,-2.335857403E-1,4.406690828E0
9.965195208E0,3.328283681E0,-4.094309862E0,-3.486647185E-1,5.287949754E0
9.975172208E0,3.852963113E0,-4.825217666E0,-6.100844479E-1,6.204857235E0
9.985150208E0,4.266519719E0,-6.029266373E0,-4.358783519E-1,7.399002192E0
9.995127208E0,4.856149437E0,-7.136769948E0,-1.769075096E-1,8.634058658E0
1.000510421E1,5.291005695E0,-7.962870423E0,-1.105299175E-1,9.561080666E0
1.001508221E1,5.310111473E0,-8.833464115E0,1.854508398E-1,1.030833469E1
1.002505921E1,5.141509348E0,-9.661625733E0,6.128746295E-1,1.096164885E1
1.003503621E1,5.012394640E0,-1.006407088E1,8.178090497E-1,1.127290709E1
1.004501321E1,4.483988194E0,-1.039809307E1,8.360325551E-1,1.135453390E1
1.005499121E1,3.913550207E0,-1.074035984E1,1.240566323E0,1.149826985E1
1.006496821E1,4.033440932E0,-1.029380330E1,1.805842388E0,1.120232560E1
1.007494521E1,4.515542693E0,-8.947618137E0,1.871729398E0,1.019575240E1
1.008492321E1,4.793575459E0,-7.811208267E0,1.690639375E0,9.319420677E0
1.009490021E1,4.649010068E0,-7.186277738E0,1.651523257E0,8.716846414E0
1.010487721E1,4.372367186E0,-6.683416607E0,1.649584905E0,8.155169079E0
1.011485521E1,3.770109821E0,-6.070600340E0,1.707976955E0,7.347319364E0
1.012483221E1,3.211553376E0,-5.100182397E0,1.826943235E0,6.297908951E0
1.013480921E1,2.961243430E0,-4.174017352E0,1.963221366E0,5.481388660E0
1.014478621E1,2.763049132E0,-3.749526160E0,1.909194263E0,5.033727214E0
1.015476421E1,2.787559490E0,-3.843162010E0,1.676835269E0,5.035092716E0
1.016474121E1,2.864346296E0,-3.933346833E0,1.306825801E0,5.038203120E0
1.017471821E1,2.902173688E0,-3.779676450E0,8.276932561E-1,4.836697459E0
1.018469621E1,2.918565187E0,-3.758126537E0,1.910261599E-1,4.762145401E0
1.019467321E1,2.855667273E0,-4.058603840E0,-6.222964308E-1,5.001435149E0
1.020465021E1,2.605137472E0,-4.477400136E0,-1.359791635E0,5.355640626E0
1.021462821E1,2.466122843E0,-4.717964821E0,-1.922305036E0,5.660053938E0
1.022460521E1,2.502915278E0,-4.563854728E0,-2.155735095E0,5.633875102E0
1.023458221E1,2.710065172E0,-3.920228897E0,-2.128955432E0,5.219683809E0
1.024455921E1,2.794831088E0,-3.170295715E0,-1.931428885E0,4.646748677E0
1.025453721E1,2.712513986E0,-2.525717665E0,-1.488035107E0,3.993899138E0
1.026451421E1,2.583967043E0,-2.058833283E0,-8.328610984E-1,3.407247830E0
1.027449121E1,2.470876629E0,-1.652767544E0,-2.531995674E-1,2.983451339E0
1.028446921E1,2.423324733E0,-1.205468411E0,2.763955450E-1,2.720671121E0
1.029444621E1,2.379247252E0,-7.535488075E-1,8.505838629E-1,2.636692284E0
1.030442321E1,2.295156689E0,-2.923449951E-1,1.278923911E0,2.643644491E0
1.031440121E1,2.055122640E0,2.190834761E-1,1.613683001E0,2.622117362E0
1.032437821E1,1.746851583E0,6.286674839E-1,1.902754140E0,2.658418059E0
1.033435521E1,1.347452840E0,1.146102800E0,2.058067882E0,2.713820958E0
1.034433221E1,8.716549623E-1,1.653728827E0,2.036151348E0,2.764147919E0
1.035431021E1,4.280746579E-1,2.011444523E0,1.813061360E0,2.741595973E0
1.036428721E1,4.098547339E-2,2.392377759E0,1.424961192E0,2.784899558E0
1.037426421E1,-1.535075372E-1,2.814126315E0,9.282923356E-1,2.967254310E0
1.038424221E1,-3.345273936E-1,3.151391959E0,2.114879429E-1,3.176146566E0
1.039421875E1,-5.125990838E-1,3.430302976E0,-4.611165427E-1,3.498909087E0
1.040419575E1,-9.149202651E-1,3.428095652E0,-1.074784895E0,3.707301103E0
1.041417275E1,-1.649939246E0,3.138556151E0,-1.578795004E0,3.881420860E0
1.042415075E1,-2.454595057E0,2.766624119E0,-1.816997852E0,4.120767781E0
1.043412775E1,-2.909697300E0,2.638703998E0,-1.669190180E0,4.267937795E0
1.044410475E1,-3.087427513E0,2.764162441E0,-1.396142751E0,4.372872881E0
1.045408275E1,-3.269012210E0,2.736165388E0,-1.244820611E0,4.441015674E0
1.046405975E1,-4.035408520E0,1.856402092E0,-1.140899509E0,4.586109717E0
1.047403675E1,-5.088311380E0,2.139823651E-1,-1.023311271E0,5.194599803E0
1.048401475E1,-5.992566324E0,-1.456665380E0,-1.176944523E0,6.278369501E0
1.049399175E1,-6.817478644E0,-2.948848502E0,-1.401794085E0,7.559017741E0
1.050396875E1,-7.473354977E0,-3.706028430E0,-1.533002535E0,8.481496219E0
1.051394575E1,-7.695156823E0,-3.339848889E0,-1.425964574E0,8.509018986E0
1.052392375E1,-7.624438258E0,-1.927872609E0,-1.175144312E0,7.951711495E0
1.053390075E1,-7.237264874E0,-2.490878785E-1,-7.543693180E-1,7.280736274E0
1.054387775E1,-6.931874741E0,9.758728105E-1,-2.463152750E-1,7.004561826E0
1.055385575E1,-6.697486762E0,1.731908439E0,4.782607251E-1,6.934303793E0
1.056383275E1,-6.239664395E0,2.302251701E0,1.135915196E0,6.747153325E0
1.057380975E1,-5.700468081E0,2.577618136E0,1.621609048E0,6.462899311E0
1.058378775E1,-5.147123260E0,2.389111505E0,1.965809344E0,6.005425714E0
1.059376475E1,-4.524074658E0,2.082993393E0,2.107339299E0,5.408048807E0
1.060374175E1,-3.869099089E0,1.837139609E0,1.961507986E0,4.710894107E0
1.061371875E1,-3.202284078E0,1.684144873E0,1.637743562E0,3.971545196E0
1.062369675E1,-2.599230322E0,1.548786508E0,1.272717238E0,3.282460523E0
1.063367375E1,-2.209240334E0,1.498977587E0,7.740525077E-1,2.779718321E0
1.064365075E1,-2.164388097E0,1.721303344E0,1.373066568E-1,2.768810964E0
1.065362875E1,-2.155046585E0,2.330180926E0,-6.148464203E-1,3.232956086E0
1.066360575E1,-2.013784579E0,2.836849764E0,-1.263940567E0,3.701430895E0
1.067358275E1,-1.946946226E0,3.065168917E0,-1.406054220E0,3.893950253E0
1.068355975E1,-1.744912062E0,3.250518637E0,-1.090364801E0,3.847009866E0
1.069353775E1,-1.439910768E0,3.507204387E0,-6.252929096E-1,3.842501380E0
1.070351475E1,-1.130848584E0,3.654059547E0,-7.523276165E-2,3.825784843E0
1.071349175E1,-7.236362064E-1,3.673103344E0,4.452816980E-1,3.770094604E0
1.072346975E1,-3.311652446E-1,3.646368120E0,6.896206141E-1,3.725754618E0
1.073344675E1,-1.348367929E-2,3.450751859E0,6.739247869E-1,3.515969969E0
1.074342375E1,7.290191531E-2,2.775316590E0,3.043673091E-1,2.792908220E0
1.075340175E1,3.822207928E-2,1.520101238E0,-2.018891537E-1,1.533925660E0
1.076337875E1,2.725042230E-1,-2.836133480E-2,-1.381124032E0,1.408036401E0
1.077335575E1,1.202089890E0,-1.315029445E0,-3.142786027E0,3.612675817E0
1.078333275E1,2.298608301E0,-2.718976328E0,-4.908890737E0,6.064127362E0
1.079331075E1,3.043573396E0,-4.365232998E0,-5.762425763E0,7.843733092E0
1.080328775E1,3.372177560E0,-5.592250738E0,-5.275622256E0,8.395060452E0
1.081326475E1,2.848237216E0,-6.580475206E0,-3.576123179E0,8.012725265E0
1.082324275E1,2.010632930E0,-7.350603794E0,-1.016628634E0,7.688143774E0
1.083321975E1,1.778741128E0,-7.186642604E0,1.611753420E0,7.576905768E0
1.084319675E1,1.775415816E0,-6.785931746E0,3.786479101E0,7.971097476E0
1.085317475E1,1.990775201E0,-6.246956457E0,5.509633089E0,8.564094094E0
1.086315175E1,2.555646054E0,-5.452804585E0,6.334871099E0,8.740423126E0
1.087312875E1,3.253807111E0,-4.842072850E0,5.873442754E0,8.278300549E0
1.088310575E1,3.899137990E0,-4.709163299E0,4.250496594E0,7.446221682E0
1.089308375E1,4.401886854E0,-4.842163482E0,2.438762405E0,6.983603449E0
1.090306075E1,4.830458525E0,-5.167026597E0,4.992199235E-1,7.090889504E0
1.091303775E1,5.239772977E0,-5.259819571E0,-1.411198601E0,7.557274922E0
1.092301575E1,5.490779911E0,-5.063930830E0,-3.061865240E0,8.072612850E0
1.093299275E1,5.238194228E0,-4.851565804E0,-4.168329765E0,8.267487077E0
1.094296975E1,4.426065091E0,-4.940927632E0,-4.510677810E0,8.021784861E0
1.095294675E1,3.492056006E0,-4.968179750E0,-3.949319379E0,7.243920812E0
1.096292475E1,2.604299566E0,-4.393851318E0,-2.771775516E0,5.811286015E0
1.097290175E1,1.793543354E0,-3.293651500E0,-1.408263298E0,4.006013415E0
1.098287875E1,1.238420395E0,-2.379869103E0,-1.136243371E-1,2.685213681E0
1.099285675E1,9.338494563E-1,-1.768716661E0,1.069456912E0,2.268076613E0
1.100283375E1,8.779383802E-1,-1.361041769E0,1.991509026E0,2.566966829E0
1.101281075E1,9.719756413E-1,-1.087840266E0,2.477961116E0,2.875486808E0
1.102278775E1,1.131184214E0,-8.064397967E-1,2.504487594E0,2.863979920E0
1.103276575E1,1.319281540E0,-4.302948457E-1,2.187287840E0,2.590344674E0
1.104274275E1,1.515811136E0,4.808282375E-2,1.792743455E0,2.348174707E0
1.105271975E1,1.592597356E0,4.882249653E-1,1.423206443E0,2.190946493E0
1.106269775E1,1.614945415E0,6.465804291E-1,1.104797484E0,2.060750452E0
1.107267475E1,1.643304995E0,8.386199480E-1,6.215216748E-1,1.946798376E0
1.108265175E1,1.569538277E0,1.188113290E0,1.492291296E-1,1.974166387E0
1.109262975E1,1.651612135E0,1.652978629E0,-3.293087536E-1,2.359789238E0
1.110260675E1,1.802396039E0,2.092819639E0,-9.151518879E-1,2.909644050E0
1.111258375E1,1.923483104E0,2.312676117E0,-1.372185978E0,3.306229337E0
1.112256075E1,1.995033728E0,2.328054879E0,-1.665411710E0,3.489067964E0
1.113253875E1,1.975221607E0,2.275810592E0,-1.774107209E0,3.496894427E0
1.114251575E1,1.662737047E0,2.073572944E0,-1.745823058E0,3.179983866E0
1.115249275E1,1.064610740E0,1.799944301E0,-1.423799204E0,2.529901122E0
1.116247075E1,4.389095485E-1,2.011162688E0,-1.037606544E0,2.305221093E0
1.117244775E1,-5.276872391E-1,2.581352752E0,-6.127209574E-1,2.705043960E0
1.118242475E1,-1.547587829E0,3.540425343E0,-3.402073789E-1,3.878837552E0
1.119240175E1,-1.864011074E0,4.400191162E0,-2.367397285E-1,4.784586214E0
1.120237975E1,-1.926708428E0,4.361180878E0,-1.579894280E-1,4.770436529E0
1.121235675E1,-2.009123763E0,3.590100948E0,-9.737492479E-2,4.115201695E0
1.122233375E1,-2.040206392E0,2.628486573E0,-7.050338745E-2,3.328115761E0
1.123231175E1,-2.215124094E0,1.689876314E0,-3.244267671E-1,2.804943749E0
1.124228875E1,-2.557517163E0,5.499405724E-1,-7.936617301E-1,2.733720471E0
1.125226575E1,-3.061317941E0,-9.853219110E-1,-1.586045990E0,3.585814926E0
1.126224375E1,-3.410381513E0,-2.248053274E0,-2.108936466E0,4.596961888E0
1.127222075E1,-3.468298768E0,-2.524114358E0,-2.047486761E0,4.753151762E0
1.128219775E1,-3.489309568E0,-1.923166770E0,-1.647324371E0,4.311325698E0
1.129217475E1,-3.503293185E0,-9.625797504E-1,-1.035399220E0,3.777786979E0
1.130215275E1,-3.664810823E0,1.378188729E-2,-3.503904511E-1,3.681548828E0
1.131212975E1,-3.810370240E0,9.444089431E-1,3.722865196E-1,3.943276159E0
1.132210675E1,-3.682218568E0,1.693805643E0,8.972738799E-1,4.151242170E0
1.133208375E1,-3.444928617E0,1.991691459E0,1.188494529E0,4.152937188E0
1.134206175E1,-3.158189932E0,1.854774812E0,1.266032116E0,3.875202004E0
1.135203875E1,-2.735531550E0,1.532187433E0,1.215179467E0,3.362646625E0
1.136201575E1,-2.272475924E0,1.153521162E0,1.059827133E0,2.760070914E0
1.137199375E1,-1.851640120E0,7.764938664E-1,7.693912536E-1,2.150227141E0
1.138197075E1,-1.794318695E0,2.571003181E-1,3.485045779E-1,1.845842787E0
1.139194775E1,-2.130111426E0,-3.795585555E-1,2.201593637E-1,2.174835518E0
1.140192508E1,-2.297892601E0,-7.412620533E-1,4.153850305E-1,2.449964196E0
1.141190308E1,-2.085298365E0,-5.826077968E-1,6.856059158E-1,2.271113513E0
1.142188008E1,-1.659426354E0,-3.012608296E-1,7.968246353E-1,1.865310540E0
1.143185708E1,-1.265317587E0,-5.958955944E-2,9.381167543E-1,1.576274898E0
1.144183508E1,-8.811256975E-1,3.175219363E-1,1.174679970E0,1.502356717E0
1.145181208E1,-5.036282855E-1,6.712960249E-1,1.377718613E0,1.613191985E0
1.146178908E1,-1.280481756E-2,1.089840891E0,1.485720195E0,1.842628999E0
1.147176708E1,4.521692795E-1,1.433109287E0,1.243576469E0,1.950574716E0
1.148174408E1,7.348961896E-1,1.387983400E0,7.793006030E-1,1.753248345E0
1.149172108E1,7.563800293E-1,8.496396106E-1,3.533723118E-1,1.191163384E0
1.150169808E1,9.202622813E-1,3.309190768E-1,1.873470553E-1,9.957354171E-1
1.151167608E1,1.319096768E0,2.230601674E-1,-1.336556554E-2,1.337890414E0
1.152165308E1,1.793298941E0,2.250762874E-1,-1.490689889E-1,1.813505442E0
1.153163008E1,2.445913696E0,3.016134167E-1,-1.107732347E-1,2.466928287E0
1.154160808E1,3.110267907E0,2.705927682E-1,-1.389451198E-1,3.125106821E0
1.155158508E1,3.557373497E0,-1.602178019E-1,-1.861718380E-1,3.565842944E0
1.156156208E1,3.684108973E0,-8.510762715E-1,-2.562518871E-1,3.789809332E0
1.157153908E1,3.452926438E0,-1.918703590E0,-5.146403468E-1,3.983588727E0
1.158151708E1,3.104409581E0,-3.070084671E0,-4.239067626E-1,4.386624634E0
1.159149408E1,2.943039293E0,-3.729099789E0,-3.581056329E-1,4.764021953E0
1.160147108E1,2.868341113E0,-3.908445588E0,-4.430563208E-1,4.868226223E0
1.161144808E1,2.780994236E0,-3.802561283E0,-4.433604491E-1,4.731804069E0
1.162142608E1,2.632693060E0,-3.663557764E0,-3.778072413E-1,4.527191906E0
1.163140308E1,2.393539016E0,-3.547594029E0,-2.704419100E-1,4.288075471E0
1.164138008E1,2.170115152E0,-3.445564209E0,-5.203671098E-2,4.072348255E0
1.165135808E1,2.015790174E0,-3.405183923E0,1.608416998E-1,3.960373420E0
1.166133508E1,1.910295879E0,-3.400414934E0,2.388704538E-1,3.907571005E0
1.167131208E1,1.780803441E0,-3.461953955E0,2.743443418E-1,3.902774769E0
1.168128908E1,1.683671833E0,-3.575567694E0,1.829536036E-1,3.956375512E0
1.169126708E1,1.434674587E0,-3.736591827E0,5.954402424E-2,4.002993272E0
1.170124408E1,1.289963601E0,-3.854542446E0,1.261384384E-1,4.066621996E0
1.171122108E1,1.468097856E0,-3.673551241E0,4.126134137E-1,3.977504225E0
1.172119908E1,1.871426513E0,-3.095396683E0,6.429937470E-1,3.673847952E0
1.173117608E1,2.183903471E0,-2.800750809E0,8.125858051E-1,3.643341208E0
1.174115308E1,2.378964247E0,-2.779449402E0,1.073113176E0,3.812660718E0
1.175113008E1,2.600248030E0,-2.630140750E0,1.271303966E0,3.910900658E0
1.176110808E1,2.594303166E0,-2.460187334E0,1.213499562E0,3.775647206E0
1.177108508E1,2.301185753E0,-2.460040569E0,1.063654135E0,3.532508400E0
1.178106208E1,1.787089782E0,-2.706151630E0,1.092377998E0,3.422022242E0
1.179104008E1,1.193558217E0,-2.895720701E0,1.183072990E0,3.348050372E0
1.180101708E1,4.890388978E-1,-2.977950094E0,1.176761506E0,3.239153199E0
1.181099408E1,-1.745218456E-1,-2.816837668E0,1.137720816E0,3.042932957E0
1.182097208E1,-6.976330537E-1,-2.360945467E0,1.163590068E0,2.722994165E0
1.183094908E1,-9.965064651E-1,-1.636402357E0,1.260547428E0,2.293429229E0
1.184092608E1,-1.033756737E0,-6.505039108E-1,1.460356143E0,1.903798412E0
1.185090308E1,-8.589904779E-1,2.897529244E-1,1.625984373E0,1.861624715E0
1.186088108E1,-5.701777858E-1,1.177787692E0,1.646832621E0,2.103412521E0
1.187085808E1,-2.062348044E-1,1.875894955E0,1.498777612E0,2.409947926E0
1.188083508E1,9.341804087E-2,2.337633203E0,1.210703423E0,2.634209312E0
1.189081308E1,3.214097500E-1,2.587972970E0,7.784012282E-1,2.721546765E0
1.190079008E1,4.106271511E-1,2.683397775E0,2.169708405E-1,2.723291138E0
1.191076708E1,4.149505824E-1,2.692218885E0,-3.375708693E-1,2.744846189E0
1.192074408E1,4.105528915E-1,2.635007388E0,-7.733316922E-1,2.776663379E0
1.193072208E1,4.030210930E-1,2.532102240E0,-1.000517070E0,2.752272182E0
1.194069908E1,3.490746814E-1,2.480205277E0,-1.115759844E0,2.741932052E0
1.195067608E1,1.969178510E-1,2.498264403E0,-1.036692039E0,2.711979360E0
1.196065408E1,-5.568888187E-3,2.681844755E0,-7.080557156E-1,2.773745698E0
1.197063108E1,-1.840685946E-1,2.979185611E0,-2.837349701E-1,2.998321812E0
1.198060808E1,-3.932112193E-1,3.301240309E0,7.147693058E-2,3.325343831E0
1.199058608E1,-7.365649849E-1,3.575225047E0,3.634968023E-1,3.668363673E0
1.200056308E1,-1.201497567E0,3.684186741E0,6.282488233E-1,3.925751512E0
1.201054008E1,-1.593465668E0,3.709889932E0,8.246281457E-1,4.120974123E0
1.202051708E1,-1.905740898E0,3.693403707E0,9.269316155E-1,4.258201678E0
1.203049508E1,-2.161724398E0,3.582302517E0,9.834233201E-1,4.298030377E0
1.204047208E1,-2.317785414E0,3.549299662E0,9.632498413E-1,4.347126358E0
1.205044908E1,-2.393246363E0,3.544455829E0,6.972798087E-1,4.333242944E0
1.206042708E1,-2.567078237E0,3.334825546E0,3.026548058E-1,4.219307056E0
1.207040408E1,-2.913943256E0,2.900997813E0,-8.392917931E-2,4.112650935E0
1.208038108E1,-3.348523234E0,2.561409069E0,-3.736955158E-1,4.232383797E0
1.209035908E1,-3.663843693E0,2.284622930E0,-5.467403913E-1,4.352261205E0
1.210033608E1,-4.049604390E0,2.041814377E0,-5.874943515E-1,4.573122706E0
1.211031308E1,-4.489751502E0,1.876438746E0,-4.378483154E-1,4.885755015E0
1.212029108E1,-4.679350978E0,1.824606687E0,-3.194830924E-1,5.032651844E0
1.213026808E1,-4.698221697E0,1.831788238E0,-2.169884187E-1,5.047357649E0
1.214024508E1,-4.648487035E0,1.842924260E0,-3.738124967E-2,5.000619851E0
1.215022208E1,-4.503423754E0,1.836833800E0,1.701831750E-1,4.866594932E0
1.216020008E1,-4.203437325E0,1.934578196E0,3.239391458E-1,4.638578954E0
1.217017708E1,-3.847465560E0,2.135852222E0,4.008294104E-1,4.418769079E0
1.218015408E1,-3.525509096E0,2.219111896E0,3.280340606E-1,4.178669445E0
1.219013208E1,-3.335365829E0,2.033729432E0,2.199634820E-1,3.912685081E0
1.220010908E1,-3.205153014E0,1.713019593E0,3.347991429E-2,3.634358661E0
1.221008608E1,-3.211239966E0,1.218673178E0,-3.174740622E-1,3.449350114E0
1.222006408E1,-3.336935806E0,3.899367785E-1,-7.210833120E-1,3.436153723E0
1.223004108E1,-3.525676911E0,-5.636692500E-1,-1.035645388E0,3.717617795E0
1.224001808E1,-3.657733938E0,-8.811479169E-1,-1.309167026E0,3.983636217E0
1.224999608E1,-3.836546470E0,-5.924498302E-1,-1.515915216E0,4.167503397E0
1.225997308E1,-4.091200313E0,-1.790335572E-1,-1.477962694E0,4.353659006E0
1.226995008E1,-4.277286197E0,1.992280859E-1,-1.430849923E0,4.514665053E0
1.227992808E1,-4.326978174E0,4.997738010E-1,-1.328424831E0,4.553814501E0
1.228990508E1,-4.340972316E0,6.967454463E-1,-1.126025288E0,4.538438918E0
1.229988208E1,-4.301936889E0,8.557774329E-1,-9.155184352E-1,4.480757750E0
1.230986008E1,-4.252686961E0,1.067437284E0,-7.635586560E-1,4.450594405E0
1.231983708E1,-4.230230729E0,1.219087746E0,-5.475727424E-1,4.436311853E0
1.232981408E1,-4.289837830E0,1.244767547E0,-2.304809419E-1,4.472725827E0
1.233979208E1,-4.194834024E0,1.257965298E0,2.758942924E-1,4.388077807E0
1.234976908E1,-3.824155051E0,1.431742793E0,6.512037494E-1,4.134986771E0
1.235974608E1,-3.372071725E0,1.590053233E0,9.288875091E-1,3.842130790E0
1.236972408E1,-2.971862558E0,1.533852135E0,1.273157533E0,3.578491238E0
1.237970108E1,-2.591790617E0,1.382691670E0,1.558901607E0,3.325565978E0
1.238967808E1,-2.160943210E0,1.142473433E0,1.752535661E0,3.007707157E0
1.239965596E1,-1.702713291E0,7.810383224E-1,1.777844750E0,2.582631481E0
1.240963296E1,-1.226620129E0,3.097960103E-1,1.611999003E0,2.049173319E0
1.241960996E1,-7.749069321E-1,-2.016061485E-1,1.338365682E0,1.559598824E0
1.242958796E1,-4.108528537E-1,-7.146186304E-1,9.849253967E-1,1.284351156E0
1.243956496E1,-1.033542144E-1,-1.183378215E0,7.097507503E-1,1.383767401E0
1.244954196E1,1.106813604E-1,-1.525379519E0,5.353838559E-1,1.620391593E0
1.245951996E1,3.690008229E-1,-1.657216691E0,4.472212925E-1,1.755715140E0
1.246949696E1,5.590552121E-1,-1.607799532E0,4.952883653E-1,1.772814889E0
1.247947396E1,6.355677831E-1,-1.514716537E0,7.179911582E-1,1.792714115E0
1.248945196E1,6.842598867E-1,-1.351164653E0,1.014413563E0,1.822880245E0
1.249942896E1,7.652216041E-1,-1.166720082E0,1.398933481E0,1.975807364E0
1.250940596E1,8.745522577E-1,-1.112635676E0,1.749573462E0,2.250290448E0
1.251938396E1,9.830835968E-1,-1.150394656E0,1.942441531E0,2.462303865E0
1.252936096E1,1.070962570E0,-1.436543941E0,1.991638834E0,2.679037993E0
1.253933796E1,1.054851152E0,-1.850284150E0,1.920824375E0,2.868070548E0
1.254931596E1,1.018802483E0,-2.229509999E0,1.910113446E0,3.107604658E0
1.255929296E1,1.107176131E0,-2.539647487E0,2.032836562E0,3.436287652E0
1.256926996E1,1.179783347E0,-2.778042562E0,2.163469207E0,3.713490034E0
1.257924796E1,1.345530276E0,-2.823254403E0,2.311972697E0,3.889271769E0
1.258922496E1,1.541081048E0,-2.834666414E0,2.387137485E0,4.013563235E0
1.259920196E1,1.730743089E0,-2.896448679E0,2.378965416E0,4.128481929E0
1.260917996E1,1.914060316E0,-2.970729952E0,2.336260861E0,4.236387394E0
1.261915696E1,2.068605734E0,-3.133036380E0,2.274768033E0,4.389717103E0
1.262913396E1,2.247511237E0,-3.462769641E0,2.096166000E0,4.629901970E0
1.263911196E1,2.473240659E0,-3.753084483E0,1.851594511E0,4.861169070E0
1.264908896E1,2.588507990E0,-4.142680369E0,1.523169272E0,5.116856348E0
1.265906596E1,2.517044490E0,-4.719943811E0,1.238344381E0,5.490617392E0
1.266904396E1,2.475656728E0,-5.254408557E0,1.087418389E0,5.909328581E0
1.267902096E1,2.546029723E0,-5.544609379E0,1.008192126E0,6.183964090E0
1.268899796E1,2.768265433E0,-5.670306973E0,1.014517643E0,6.391003108E0
1.269897596E1,3.237512675E0,-5.688799378E0,1.173131554E0,6.649824383E0
1.270895296E1,3.878915979E0,-5.548215356E0,1.266573569E0,6.887154087E0
1.271892996E1,4.433009829E0,-5.446498947E0,1.108023977E0,7.109405324E0
1.272890796E1,4.687157888E0,-5.687654493E0,7.547749686E-1,7.408680581E0
1.273888496E1,4.638810770E0,-6.266192628E0,4.251650834E-1,7.807976739E0
1.274886296E1,4.560028310E0,-6.911698923E0,1.669684124E-1,8.282108345E0
1.275883996E1,4.668601749E0,-7.335081190E0,-1.115718913E-1,8.695499218E0
1.276881696E1,4.805789707E0,-7.298730805E0,-3.978083003E-1,8.747876172E0
1.277879496E1,4.959386122E0,-6.597572465E0,-4.254562747E-1,8.264652817E0
1.278877196E1,4.842093900E0,-5.494412202E0,-1.806590831E-1,7.325781629E0
1.279874896E1,4.444715955E0,-4.501848514E0,1.761988270E-1,6.328758645E0
1.280872696E1,4.234661749E0,-3.813248532E0,6.387779045E-1,5.734218491E0
1.281870396E1,4.020287036E0,-3.415115711E0,1.188390448E0,5.407216939E0
1.282868096E1,3.709629146E0,-3.296836771E0,1.669762477E0,5.236276141E0
1.283865896E1,3.394559532E0,-3.353566165E0,1.987958597E0,5.169276528E0
1.284863596E1,3.170826935E0,-3.348180879E0,1.955217698E0,5.008725875E0
1.285861296E1,2.972084752E0,-3.337434281E0,1.657143016E0,4.766327552E0
1.286859096E1,2.702959635E0,-3.429218318E0,1.277291515E0,4.549395858E0
1.287856796E1,2.386415938E0,-3.565515745E0,9.380290461E-1,4.391785747E0
1.288854496E1,2.031819731E0,-3.495567843E0,5.670723295E-1,4.082751155E0
1.289852296E1,1.574090919E0,-3.220072185E0,2.907142067E-1,3.595989689E0
1.290849996E1,1.074393716E0,-2.761152295E0,2.923128355E-1,2.977201815E0
1.291847696E1,5.566344649E-1,-2.223987889E0,5.032862234E-1,2.347181518E0
1.292845496E1,3.166910470E-2,-1.703283979E0,7.038585842E-1,1.843256942E0
1.293843196E1,-5.312429309E-1,-1.273154610E0,9.547403884E-1,1.677698102E0
1.294840896E1,-9.539732337E-1,-8.196498263E-1,1.290676961E0,1.802148103E0
1.295838696E1,-1.195929848E0,-2.752910060E-1,1.557208253E0,1.982657530E0
1.296836396E1,-1.481910734E0,8.798831642E-2,1.687433932E0,2.247495193E0
1.297834096E1,-1.730415645E0,2.795343304E-1,1.690580903E0,2.435270321E0
1.298831896E1,-1.903504338E0,5.265984875E-1,1.533804188E0,2.500637922E0
1.299829596E1,-2.013325573E0,8.055013186E-1,1.260339267E0,2.508140208E0
1.300827396E1,-2.111364083E0,1.080910438E0,9.906224120E-1,2.570517152E0
1.301825096E1,-2.248052105E0,1.355033171E0,7.961229694E-1,2.742929992E0
1.302822796E1,-2.400135260E0,1.597207301E0,6.598536086E-1,2.957554262E0
1.303820596E1,-2.561945259E0,1.973447562E0,5.516567302E-1,3.280607251E0
1.304818296E1,-2.763151458E0,2.329468151E0,4.793132240E-1,3.645705557E0
1.305815996E1,-3.029344781E0,2.467049042E0,4.640256786E-1,3.934282731E0
1.306813796E1,-3.318228225E0,2.590720577E0,4.780285907E-1,4.236860039E0
1.307811496E1,-3.515628471E0,2.744631572E0,4.575428706E-1,4.483524449E0
1.308809196E1,-3.665282108E0,2.938978987E0,3.414282775E-1,4.710463214E0
1.309806996E1,-3.859237760E0,2.991495754E0,2.035322030E-1,4.887145209E0
1.310804696E1,-4.010097385E0,2.930694652E0,1.632016361E-1,4.969556012E0
1.311802396E1,-4.015687616E0,2.998877279E0,1.223728681E-1,5.013380804E0
1.312800196E1,-3.984231350E0,3.137359811E0,1.354519200E-1,5.073014218E0
1.313797896E1,-3.949906440E0,3.263818129E0,2.344686699E-1,5.129253866E0
1.314795596E1,-3.984965760E0,3.390499225E0,2.653811449E-1,5.238880058E0
1.315793396E1,-4.144604395E0,3.396620091E0,3.247128056E-1,5.368445961E0
1.316791096E1,-4.411342387E0,3.317848740E0,3.800245786E-1,5.532854652E0
1.317788796E1,-4.742354142E0,3.341124752E0,4.831034257E-1,5.821204887E0
1.318786596E1,-5.125124280E0,3.433777392E0,6.880529755E-1,6.207345887E0
1.319784296E1,-5.405523999E0,3.398408754E0,7.910236126E-1,6.433862768E0
1.320781996E1,-5.688426910E0,3.125115741E0,7.648292559E-1,6.535251556E0
1.321779796E1,-5.902573582E0,2.720782533E0,7.657437605E-1,6.544417162E0
1.322777496E1,-5.954472883E0,2.392277772E0,7.135398191E-1,6.456615160E0
1.323775296E1,-5.923026558E0,2.152522634E0,6.449443781E-1,6.334946767E0
1.324772996E1,-5.836149212E0,2.032383403E0,6.002044076E-1,6.208982626E0
1.325770696E1,-5.673414184E0,2.069423760E0,6.457787758E-1,6.073481162E0
1.326768496E1,-5.485669445E0,2.114688225E0,7.191145545E-1,5.922972336E0
1.327766196E1,-5.396581852E0,1.921734202E0,5.625612026E-1,5.756095303E0
1.328763896E1,-5.544619904E0,1.295015010E0,3.276586694E-1,5.703265201E0
1.329761696E1,-5.708864098E0,5.349810559E-1,1.562697619E-1,5.736005078E0
1.330759396E1,-5.875936006E0,1.151819623E-1,-8.546809338E-2,5.877686248E0
1.331757096E1,-6.178173906E0,1.197585779E-1,-2.159610995E-1,6.183107158E0
1.332754896E1,-6.175851392E0,8.334890163E-1,-2.798126578E-2,6.231903987E0
1.333752596E1,-5.553316467E0,2.225493547E0,6.071580626E-2,5.982961785E0
1.334750296E1,-4.962416149E0,3.345249377E0,1.444496886E-1,5.986412377E0
1.335748096E1,-4.697002845E0,3.742144927E0,3.751105785E-1,6.017158160E0
1.336745796E1,-4.602814726E0,3.706662853E0,5.563403499E-1,5.935888096E0
1.337743596E1,-4.643698457E0,3.320167161E0,6.338218045E-1,5.743620411E0
1.338741296E1,-4.727063673E0,2.506519502E0,5.003503364E-1,5.373836752E0
1.339739033E1,-4.758132853E0,1.499844729E0,2.180490305E-1,4.993686798E0
1.340736833E1,-4.688565313E0,5.763524455E-1,-5.576723456E-2,4.724186366E0
1.341734533E1,-4.471434807E0,-1.906104594E-1,-2.536604742E-1,4.482678353E0
1.342732233E1,-4.028472261E0,-7.276818949E-1,-4.401691119E-1,4.117263477E0
1.343730033E1,-3.537610493E0,-1.023234673E0,-5.820809627E-1,3.728339502E0
1.344727733E1,-3.095170396E0,-1.084470223E0,-6.464717440E-1,3.342765496E0
1.345725433E1,-2.693178998E0,-1.102352763E0,-6.278027538E-1,2.977000340E0
1.346723233E1,-2.290032189E0,-1.109017419E0,-4.328074674E-1,2.580986123E0
1.347720933E1,-1.882733274E0,-9.389143145E-1,-2.042432427E-2,2.103963360E0
1.348718733E1,-1.496638116E0,-5.671021503E-1,4.746890996E-1,1.669389182E0
1.349716433E1,-1.073382148E0,-1.371429348E-1,9.155686482E-1,1.417470765E0
1.350714133E1,-7.677756679E-1,4.503256524E-1,1.342311383E0,1.610612467E0
1.351711933E1,-5.782025045E-1,9.437762743E-1,1.753357780E0,2.073474209E0
1.352709633E1,-4.498760015E-1,1.255338144E0,2.147402228E0,2.527765535E0
1.353707333E1,-2.898540813E-1,1.362488955E0,2.470349795E0,2.836021800E0
1.354705133E1,-7.677394152E-2,1.367202396E0,2.636119528E0,2.970566074E0
1.355702833E1,1.067040843E-1,1.302271405E0,2.708050806E0,3.006798254E0
1.356700533E1,2.598029011E-1,1.025346102E0,2.733929998E0,2.931416963E0
1.357698333E1,4.352696568E-1,4.794740224E-1,2.652915655E0,2.730808761E0
1.358696033E1,6.357888079E-1,1.071268380E-2,2.275626989E0,2.362799264E0
1.359693833E1,7.011372900E-1,-4.129110736E-1,1.851526099E0,2.022433670E0
1.360691533E1,7.903318870E-1,-7.030294490E-1,1.527482763E0,1.857976988E0
1.361689233E1,1.039129744E0,-7.383156413E-1,1.099998089E0,1.683715061E0
1.362687033E1,1.372029272E0,-5.236023742E-1,6.467979455E-1,1.604671727E0
1.363684733E1,1.586699855E0,-3.671723986E-1,4.319794285E-1,1.684944577E0
1.364682433E1,1.682464383E0,-4.455712813E-1,5.119067734E-1,1.814185413E0
1.365680233E1,1.728796551E0,-5.956435794E-1,7.188625395E-1,1.964762616E0
1.366677933E1,1.685783848E0,-8.085787082E-1,8.882037520E-1,2.069920920E0
1.367675733E1,1.333574474E0,-1.375329441E0,9.663915503E-1,2.145661804E0
1.368673433E1,7.631271315E-1,-2.318225709E0,1.141916778E0,2.694532870E0
1.369671133E1,1.991433012E-1,-3.417103472E0,1.587837138E0,3.773258667E0
1.370668933E1,3.109023035E-2,-4.113446630E0,2.052473266E0,4.597179166E0
1.371666633E1,2.253014052E-1,-4.405184099E0,2.278526623E0,4.964684405E0
1.372664333E1,5.090960169E-1,-4.600174708E0,2.392346184E0,5.210000611E0
1.373662133E1,7.876462609E-1,-4.609613283E0,2.516829897E0,5.310683005E0
1.374659833E1,1.155463607E0,-4.752984965E0,2.623362658E0,5.550494920E0
1.375657633E1,1.565680869E0,-4.858380150E0,2.722412152E0,5.785044701E0
1.376655333E1,1.986361138E0,-4.892618521E0,2.756442947E0,5.956620206E0
1.377653033E1,2.333744804E0,-4.963701952E0,2.751394461E0,6.136356685E0
1.378650833E1,2.557390863E0,-5.107324187E0,2.641940432E0,6.293239040E0
1.379648533E1,2.505789185E0,-5.489330387E0,2.488390210E0,6.527159671E0
1.380646233E1,2.433072626E0,-5.931569924E0,2.424075369E0,6.854159727E0
1.381644033E1,2.635031946E0,-6.083433809E0,2.411785837E0,7.054663082E0
1.382641733E1,2.936909072E0,-6.014937186E0,2.416946590E0,7.116637905E0
1.383639533E1,3.050478957E0,-5.950086887E0,2.550578856E0,7.156424270E0
1.384637233E1,3.273354353E0,-5.647534407E0,2.705993171E0,7.066250253E0
1.385634933E1,3.593302884E0,-5.172411883E0,2.774161180E0,6.881979407E0
1.386632733E1,3.839287645E0,-4.641093815E0,2.820041943E0,6.650753189E0
1.387630433E1,3.947424881E0,-4.210807156E0,2.874533315E0,6.447945555E0
1.388628133E1,3.926692409E0,-3.869941673E0,2.850205389E0,6.206370323E0
1.389625933E1,3.866209395E0,-3.673110361E0,2.680554274E0,5.968641891E0
1.390623633E1,3.717940378E0,-3.727822173E0,2.380621347E0,5.778156869E0
1.391621433E1,3.374375528E0,-3.971104643E0,2.056732524E0,5.602341561E0
1.392619133E1,3.050525735E0,-4.175795783E0,1.791927330E0,5.473023043E0
1.393616833E1,2.698218713E0,-4.195840038E0,1.586104023E0,5.234614008E0
1.394614633E1,2.339877949E0,-4.094365118E0,1.555520747E0,4.965732507E0
1.395612333E1,2.013114488E0,-3.822143024E0,1.561331710E0,4.593382625E0
1.396610133E1,1.776985209E0,-3.424719178E0,1.501340446E0,4.140096740E0
1.397607833E1,1.590501130E0,-2.931205406E0,1.373480551E0,3.606675450E0
1.398605533E1,1.388393290E0,-2.426040180E0,1.172072039E0,3.031016289E0
1.399603333E1,1.236230612E0,-1.949990872E0,8.895018339E-1,2.474256260E0
1.400601033E1,1.251327538E0,-1.445491936E0,5.389788337E-1,1.986395159E0
1.401598733E1,1.461021556E0,-9.175480038E-1,1.885528425E-1,1.735520239E0
1.402596533E1,1.733135185E0,-4.612511748E-1,-1.667239805E-1,1.801196019E0
1.403594233E1,2.022373554E0,-8.586519241E-2,-4.317057788E-1,2.069719185E0
1.404592033E1,2.229086076E0,2.064032042E-1,-5.142778194E-1,2.296934630E0
1.405589733E1,2.305526726E0,3.108438313E-1,-4.582766962E-1,2.371095718E0
1.406587433E1,2.328266548E0,2.801623213E-1,-2.310006863E-1,2.356411968E0
1.407585233E1,2.305807393E0,3.191842997E-1,9.905241787E-2,2.329900798E0
1.408582933E1,2.220094228E0,3.736581302E-1,4.384499574E-1,2.293616608E0
1.409580633E1,2.040755446E0,4.247206950E-1,7.220855248E-1,2.206009511E0
1.410578433E1,1.839756823E0,5.209945160E-1,9.587866616E-1,2.139021346E0
1.411576133E1,1.562066120E0,6.250410408E-1,1.164955977E0,2.046423537E0
1.412573933E1,1.192454263E0,6.810316390E-1,1.205327493E0,1.827174219E0
1.413571633E1,7.489686835E-1,7.681604147E-1,1.018111927E0,1.479045776E0
1.414569333E1,3.293058300E-1,7.227029908E-1,8.048850220E-1,1.130743933E0
1.415567133E1,-4.971361220E-2,4.898674482E-1,5.692802382E-1,7.526762582E-1
1.416564833E1,-4.015639669E-1,2.974215478E-1,3.015116934E-1,5.836287329E-1
1.417562533E1,-7.856757492E-1,2.766580850E-1,7.020165285E-2,8.359152773E-1
1.418560333E1,-1.273284418E0,4.133227175E-1,-3.151824653E-2,1.339060222E0
1.419558033E1,-1.793978387E0,6.293334818E-1,3.088439008E-2,1.901413403E0
1.420555833E1,-2.287041923E0,8.985813904E-1,9.363027653E-2,2.459019297E0
1.421553533E1,-2.717640824E0,1.114001001E0,1.933556907E-1,2.943459921E0
1.422551233E1,-3.058012510E0,1.381725125E0,3.448050080E-1,3.373350757E0
1.423549033E1,-3.319629802E0,1.812305315E0,3.761536853E-1,3.800774154E0
1.424546733E1,-3.549889061E0,2.303802382E0,3.112180166E-1,4.243356504E0
1.425544433E1,-3.836295624E0,2.560996841E0,1.799467826E-1,4.616085981E0
1.426542233E1,-4.210810956E0,2.559906335E0,-1.267603263E-3,4.927885039E0
1.427539933E1,-4.622098843E0,2.570889745E0,-2.822748473E-1,5.296503647E0
1.428537733E1,-5.064307390E0,2.743994225E0,-5.306604751E-1,5.784316225E0
1.429535433E1,-5.485115129E0,3.051139108E0,-8.751714778E-1,6.337338791E0
1.430533133E1,-5.799208843E0,3.179127642E0,-1.179106824E0,6.717735382E0
1.431530933E1,-6.101789389E0,2.918920698E0,-1.195388396E0,6.868834341E0
1.432528633E1,-6.164071591E0,2.449219127E0,-1.063878157E0,6.717610412E0
1.433526333E1,-5.819447225E0,1.996030678E0,-9.440341365E-1,6.224251355E0
1.434524133E1,-5.179903336E0,2.027886309E0,-9.342968414E-1,5.640623373E0
1.435521833E1,-4.845443185E0,2.410536287E0,-8.351391006E-1,5.475989606E0
1.436519633E1,-4.927532830E0,2.490660684E0,-6.476786093E-1,5.559087876E0
1.437517333E1,-5.247106555E0,2.163548729E0,-4.001157577E-1,5.689741902E0
1.438515033E1,-5.531494074E0,1.640502425E0,-3.031303306E-1,5.777591444E0
1.439512775E1,-5.685505056E0,1.041391447E0,-5.843175226E-1,5.809551692E0
1.440510475E1,-5.788654618E0,4.174771643E-1,-1.217806621E0,5.930081149E0
1.441508275E1,-5.934617493E0,-2.945429635E-1,-1.786744358E0,6.204747839E0
1.442505975E1,-5.983276268E0,-8.756655675E-1,-2.218582576E0,6.441156242E0
1.443503675E1,-5.961059772E0,-1.023644562E0,-2.578012823E0,6.574818013E0
1.444501475E1,-6.067410100E0,-7.496563160E-1,-2.569326784E0,6.631507372E0
1.445499175E1,-6.139637246E0,-3.788527966E-2,-2.066963251E0,6.478342218E0
1.446496875E1,-6.168842919E0,7.585259575E-1,-1.468819549E0,6.386502599E0
1.447494675E1,-6.368732325E0,1.299513273E0,-9.049688888E-1,6.562656083E0
1.448492375E1,-6.587963735E0,1.693029132E0,-3.408319346E-1,6.810563870E0
1.449490075E1,-6.780638262E0,1.702389355E0,1.251865482E-1,6.992199685E0
1.450487875E1,-6.838126332E0,1.463921190E0,6.079923141E-1,7.019450950E0
1.451485575E1,-6.685454947E0,1.186850291E0,1.132383551E0,6.883764520E0
1.452483375E1,-6.439925684E0,9.313193661E-1,1.497853021E0,6.677092350E0
1.453481075E1,-6.013862468E0,8.191101283E-1,1.761904070E0,6.319951672E0
1.454478775E1,-5.426767518E0,8.906467187E-1,1.959122468E0,5.837912137E0
1.455476575E1,-4.822833171E0,1.010404712E0,1.912579801E0,5.285697587E0
1.456474275E1,-4.069469721E0,1.226318412E0,1.778126001E0,4.607187074E0
1.457471975E1,-3.211366850E0,1.548240963E0,1.678575400E0,3.940500286E0
1.458469775E1,-2.540624557E0,1.927496633E0,1.828764642E0,3.676193211E0
1.459467475E1,-1.841795747E0,2.063933809E0,1.918321767E0,3.366302533E0
1.460465275E1,-1.169381150E0,2.033069281E0,1.732493745E0,2.915880236E0
1.461462975E1,-5.262862462E-1,2.016279001E0,1.455701759E0,2.541933483E0
1.462460675E1,6.454741359E-2,1.636296523E0,1.157675024E0,2.005453600E0
1.463458475E1,5.816786742E-1,1.209845636E0,9.240705729E-1,1.629718677E0
1.464456175E1,1.078884963E0,8.216647768E-1,6.326389128E-1,1.496448383E0
1.465453875E1,1.566900598E0,4.614640135E-1,3.717139310E-1,1.675200814E0
1.466451675E1,1.980610986E0,1.223214126E-1,1.399273789E-1,1.989311961E0
1.467449375E1,2.312380832E0,-1.280101687E-1,-1.476299526E-1,2.320621968E0
1.468447175E1,2.531873614E0,-3.714011049E-1,-2.480833634E-1,2.570966381E0
1.469444875E1,2.740926191E0,-4.635105389E-1,-2.310234173E-1,2.789424712E0
1.470442575E1,2.770397912E0,-3.964593476E-1,-1.296199071E-1,2.801622017E0
1.471440375E1,2.648912652E0,-4.610769278E-1,6.669568062E-2,2.689568457E0
1.472438075E1,2.461794734E0,-6.802364177E-1,3.090352144E-1,2.572675195E0
1.473435775E1,2.156316308E0,-1.074174446E0,5.388331650E-1,2.468580957E0
1.474433575E1,1.874346612E0,-1.633332569E0,7.171141490E-1,2.587509074E0
1.475431275E1,1.786188726E0,-2.224947417E0,8.792464024E-1,2.985621445E0
1.476429075E1,1.716571777E0,-2.893166344E0,7.953014356E-1,3.456809878E0
1.477426775E1,1.584096674E0,-3.744728520E0,7.316199946E-1,4.131297832E0
1.478424475E1,1.539062589E0,-4.631434507E0,7.505673122E-1,4.937838651E0
1.479422275E1,1.462854658E0,-5.351308030E0,6.811889291E-1,5.589316572E0
1.480419975E1,1.500314845E0,-5.770282082E0,7.070324528E-1,6.003914958E0
1.481417675E1,1.458026027E0,-5.977486939E0,7.812388819E-1,6.202138679E0
1.482415475E1,1.473903556E0,-6.120753078E0,1.050668054E0,6.382782567E0
1.483413175E1,1.762684089E0,-6.109098408E0,1.442250824E0,6.519833280E0
1.484410875E1,2.156219244E0,-5.852624327E0,1.716561252E0,6.469086139E0
1.485408675E1,2.212812105E0,-5.883886465E0,1.797051684E0,6.538046505E0
1.486406375E1,1.953671109E0,-6.517359191E0,1.990062425E0,7.088945626E0
1.487404175E1,2.051578057E0,-7.032247460E0,2.219252229E0,7.654185608E0
1.488401875E1,2.575002092E0,-7.136615582E0,2.227611408E0,7.907222668E0
1.489399575E1,3.299614783E0,-7.025257698E0,2.165980586E0,8.058112393E0
1.490397375E1,4.029562474E0,-6.732231503E0,2.080108377E0,8.117090956E0
1.491395075E1,4.727842814E0,-6.259678245E0,1.901984646E0,8.071778924E0
1.492392775E1,5.194278131E0,-5.835694299E0,1.845346177E0,8.027524884E0
1.493390575E1,5.215902303E0,-5.674145671E0,1.713121920E0,7.895337399E0
1.494388275E1,5.070421824E0,-5.549757267E0,1.629421366E0,7.691813647E0
1.495386075E1,4.744940658E0,-5.525534007E0,1.631658511E0,7.463799127E0
1.496383775E1,4.224130329E0,-5.529608347E0,1.641325128E0,7.149391141E0
1.497381475E1,3.522142269E0,-5.548606535E0,1.582120900E0,6.759854080E0
1.498379275E1,2.808455685E0,-5.502479605E0,1.436994177E0,6.342685346E0
1.499376975E1,2.227020255E0,-5.322805778E0,1.192329133E0,5.891818847E0
1.500374675E1,1.762533231E0,-5.218359303E0,9.250692773E-1,5.585118654E0
1.501372475E1,1.427923976E0,-5.050235481E0,7.305768514E-1,5.298828912E0
1.502370175E1,1.299471173E0,-4.676066304E0,6.067503655E-1,4.891049726E0
1.503367975E1,1.350053682E0,-4.180127692E0,4.613803983E-1,4.416897592E0
1.504365675E1,1.534527488E0,-3.413924048E0,2.623177886E-1,3.752127749E0
1.505363375E1,1.627177205E0,-2.614100084E0,1.059936476E-1,3.080983537E0
1.506361175E1,1.596927220E0,-1.893240720E0,3.803047333E-3,2.476802663E0
1.507358875E1,1.543034602E0,-1.161686214E0,-1.702078064E-1,1.938927885E0
1.508356575E1,1.364458882E0,-5.708648336E-1,-4.770228696E-1,1.554086715E0
1.509354375E1,9.985108906E-1,-3.312359959E-1,-6.841242313E-1,1.254897306E0
1.510352075E1,5.605152619E-1,-2.571330625E-1,-5.498394156E-1,8.262070888E-1
1.511349775E1,2.953118724E-1,-1.801041824E-1,-9.668604970E-2,3.591584757E-1
1.512347575E1,2.749132758E-1,2.088666362E-1,4.552945797E-1,5.713980532E-1
1.513345275E1,2.175731403E-1,8.220267195E-1,9.714108002E-1,1.291009272E0
1.514343075E1,1.765882516E-1,1.421327147E0,1.214630413E0,1.877946035E0
1.515340775E1,1.043839091E-1,2.091689372E0,1.278975513E0,2.453943519E0
1.516338475E1,2.671066582E-2,2.625831352E0,1.132208719E0,2.859650387E0
1.517336275E1,-3.332854450E-2,3.007470347E0,8.034202214E-1,3.113113029E0
1.518333975E1,-1.257578212E-1,3.313227686E0,2.994065313E-1,3.329104534E0
1.519331675E1,-1.577502769E-1,3.491725053E0,-2.913732610E-1,3.507410352E0
1.520329475E1,-2.211592376E-1,3.409339539E0,-8.049826705E-1,3.510057635E0
1.521327175E1,-2.775848687E-1,3.155201420E0,-1.064685877E0,3.341542365E0
1.522324875E1,-4.326892805E-1,2.659904832E0,-1.172476227E0,2.938879758E0
1.523322675E1,-6.905947602E-1,2.264231350E0,-1.188203483E0,2.648677453E0
1.524320375E1,-1.087487971E0,1.987830543E0,-1.199866194E0,2.563938228E0
1.525318175E1,-1.443188133E0,1.906884028E0,-1.178032983E0,2.665850782E0
1.526315875E1,-1.696505887E0,1.961494099E0,-1.236416115E0,2.873032568E0
1.527313575E1,-1.974148058E0,2.021402916E0,-1.431732852E0,3.167520997E0
1.528311375E1,-2.224976653E0,1.997162114E0,-1.608521664E0,3.395072836E0
1.529309075E1,-2.555462451E0,1.848066886E0,-1.724182513E0,3.594237734E0
1.530306775E1,-2.933672639E0,1.670223822E0,-1.881572016E0,3.864763385E0
1.531304575E1,-3.516448250E0,1.394512986E0,-2.008282349E0,4.282904711E0
1.532302275E1,-4.069511236E0,1.119261741E0,-2.127286052E0,4.726416665E0
1.533299975E1,-4.530560682E0,9.940360165E-1,-2.218849356E0,5.141729296E0
1.534297775E1,-5.079251704E0,7.337162215E-1,-1.970808129E0,5.497383200E0
1.535295475E1,-5.768860624E0,3.303939968E-1,-1.525802566E0,5.976369011E0
1.536293275E1,-6.285846289E0,1.816484320E-1,-1.123097222E0,6.387973629E0
1.537290975E1,-6.861004733E0,3.899975896E-2,-7.178680743E-1,6.898568076E0
1.538288675E1,-7.365201952E0,-3.253706539E-1,-4.456667371E-1,7.385843534E0
1.539286475E1,-7.721021397E0,-8.899801362E-1,-2.702312641E-1,7.776841325E0
1.540284213E1,-7.900708088E0,-1.064408426E0,-2.208518203E-1,7.975144458E0
1.541281912E1,-7.882020387E0,-9.872883296E-1,-3.479280424E-1,7.951228682E0
1.542279713E1,-7.757088193E0,-4.902030784E-1,-5.854688394E-1,7.794580813E0
1.543277413E1,-7.625182024E0,3.573327041E-1,-8.989966889E-1,7.686304874E0
1.544275112E1,-7.672948514E0,1.150347294E0,-1.124358759E0,7.839746195E0
1.545272913E1,-7.937520404E0,1.826076677E0,-1.059313163E0,8.213460329E0
1.546270612E1,-8.173988822E0,2.286546664E0,-9.420425749E-1,8.539896552E0
1.547268413E1,-8.223187294E0,2.431809627E0,-7.632323813E-1,8.609124869E0
1.548266113E1,-8.126472008E0,2.375899721E0,-4.549983086E-1,8.478883785E0
1.549263812E1,-7.825127563E0,2.314144937E0,-7.827316761E-2,8.160515600E0
1.550261613E1,-7.439380315E0,2.176091006E0,2.209673028E-1,7.754261931E0
1.551259312E1,-6.980386165E0,1.742855011E0,4.552354132E-1,7.209061929E0
1.552257013E1,-6.589375253E0,1.179087528E0,8.229697292E-1,6.744434209E0
1.553254813E1,-6.159407267E0,4.374103224E-1,1.252821941E0,6.300729203E0
1.554252512E1,-5.647081833E0,-3.545324725E-1,1.542037067E0,5.864563481E0
1.555250213E1,-4.969546244E0,-8.773326087E-1,1.587103897E0,5.290085175E0
1.556248012E1,-4.181767836E0,-1.159815105E0,1.407283305E0,4.562104735E0
1.557245713E1,-3.402397724E0,-1.163321680E0,1.122548388E0,3.766927460E0
1.558243513E1,-2.669222955E0,-9.521570885E-1,9.275618722E-1,2.981899618E0
1.559241212E1,-1.995613187E0,-6.108890247E-1,8.828629053E-1,2.266076853E0
1.560238913E1,-1.406399206E0,-2.666055518E-1,9.775550544E-1,1.733392953E0
1.561236712E1,-9.309685332E-1,-3.776307285E-2,1.222292020E0,1.536921026E0
1.562234413E1,-5.280088359E-1,-1.471978068E-2,1.535075372E0,1.623411963E0
1.563232113E1,-1.245790225E-1,-1.776091754E-1,2.107461652E0,2.118598491E0
1.564229912E1,3.771629512E-1,-1.282779711E-1,2.490296402E0,2.521960210E0
1.565227613E1,8.654463887E-1,2.118662578E-1,2.562387893E0,2.712879739E0
1.566225312E1,1.305495560E0,6.301731420E-1,2.527380613E0,2.913604230E0
1.567223113E1,1.643809025E0,9.654103875E-1,2.378080732E0,3.047850603E0
1.568220813E1,1.696073778E0,1.163345069E0,2.128054376E0,2.959502228E0
1.569218612E1,1.533687243E0,1.133421943E0,1.874767027E0,2.674246299E0
1.570216313E1,1.351530104E0,1.002408645E0,1.719535146E0,2.405879845E0
1.571214012E1,1.329199002E0,1.017587432E0,1.363653136E0,2.159121128E0
1.572211813E1,1.487352152E0,9.568529874E-1,8.748463726E-1,1.973104214E0
1.573209513E1,1.729771866E0,3.385532016E-1,5.506684776E-1,1.846608987E0
1.574207212E1,1.945101430E0,-5.294121677E-1,2.555227393E-1,2.031991310E0
1.575205013E1,2.113586025E0,-1.366072714E0,-3.228825174E-2,2.516831952E0
1.576202712E1,2.362101461E0,-2.373183689E0,-1.490817066E-1,3.351678608E0
1.577200413E1,2.537114473E0,-3.329102291E0,-3.022332215E-1,4.196572034E0
1.578198213E1,2.677917180E0,-4.252962072E0,-4.326536125E-1,5.044414333E0
1.579195912E1,2.753075536E0,-5.215641518E0,-4.060271831E-1,5.911615635E0
1.580193613E1,2.811889170E0,-6.096802883E0,-3.050141938E-1,6.720919562E0
1.581191412E1,2.883190117E0,-6.779646574E0,-2.393791981E-1,7.371139351E0
1.582189113E1,2.959688655E0,-7.199625177E0,-1.653393781E-1,7.785993626E0
1.583186913E1,3.018507552E0,-7.427892290E0,2.751869621E-2,8.017838175E0
1.584184612E1,3.159646474E0,-7.543113429E0,3.672367179E-1,8.186378250E0
1.585182313E1,3.456882665E0,-7.453899536E0,7.567326164E-1,8.251260528E0
1.586180112E1,3.784951224E0,-7.304368106E0,1.007599218E0,8.288238979E0
1.587177813E1,3.806676553E0,-7.495854478E0,1.053276497E0,8.472780660E0
1.588175513E1,3.837270355E0,-8.022033720E0,1.109195759E0,8.961472201E0
1.589173312E1,4.036172751E0,-8.365952911E0,1.108508127E0,9.354605757E0
1.590171013E1,4.526000438E0,-8.382181274E0,1.070725758E0,9.586036539E0
1.591168712E1,5.167917128E0,-8.100267127E0,9.545848525E-1,9.655719922E0
1.592166513E1,5.722258315E0,-7.702953501E0,8.040974021E-1,9.629449906E0
1.593164213E1,6.051647760E0,-7.335592822E0,7.092169726E-1,9.536055336E0
1.594162012E1,5.956047539E0,-6.939198378E0,7.194367361E-1,9.173034701E0
1.595159713E1,5.470653795E0,-6.853153092E0,9.643181276E-1,8.821772480E0
1.596157412E1,4.835633311E0,-6.931757212E0,1.272902010E0,8.547098168E0
1.597155213E1,4.103016366E0,-6.891661685E0,1.386409914E0,8.139525571E0
1.598152913E1,3.338569518E0,-6.974038428E0,1.544336777E0,7.884683539E0
1.599150612E1,2.515993745E0,-7.248251792E0,1.698592758E0,7.858281996E0
1.600148413E1,1.691758533E0,-7.391574064E0,1.633170016E0,7.756588063E0
1.601146112E1,1.215650167E0,-7.170503705E0,1.362469075E0,7.399341233E0
1.602143813E1,1.204489587E0,-6.777971347E0,9.196910083E-1,6.945323772E0
1.603141613E1,1.188799753E0,-6.058075020E0,4.240915346E-1,6.188163817E0
1.604139312E1,1.265258530E0,-4.933817418E0,5.948955378E-2,5.093817082E0
1.605137013E1,1.451623911E0,-3.761210359E0,-1.084950499E-1,4.033074078E0
1.606134812E1,1.646996343E0,-2.598878027E0,-1.314816606E-1,3.079618707E0
1.607132513E1,1.764580926E0,-1.542327089E0,-1.079910564E-1,2.346099052E0
1.608130313E1,1.856017345E0,-6.014843631E-1,-8.554184139E-2,1.952921205E0
1.609128012E1,1.907339526E0,1.637126827E-1,-1.151468790E-1,1.917812482E0
1.610125713E1,1.878767692E0,7.463666725E-1,-1.167021652E-1,2.024956949E0
1.611123512E1,1.822948417E0,1.208925869E0,-6.143135928E-2,2.188245073E0
1.612121213E1,1.678680065E0,1.561639273E0,1.762280631E-1,2.299508711E0
1.613118913E1,1.466426722E0,1.785978227E0,4.224730253E-1,2.349171985E0
1.614116712E1,1.214045107E0,2.153075196E0,5.325351655E-1,2.528484136E0
1.615114413E1,1.061072590E0,2.492402569E0,4.869982926E-1,2.752292307E0
1.616112112E1,7.367772388E-1,2.625248970E0,3.637283885E-1,2.750831001E0
1.617109913E1,3.492699784E-1,2.588945362E0,1.934329835E-1,2.619550329E0
1.618107613E1,-4.908679068E-2,2.568230431E0,-5.423701823E-2,2.569272020E0
1.619105312E1,-4.812211704E-1,2.464365170E0,-2.424010026E-1,2.522583547E0
1.620103113E1,-8.283504832E-1,2.461121135E0,-2.859814703E-1,2.612482950E0
1.621100812E1,-1.061139248E0,2.685855945E0,-3.736271399E-1,2.911947098E0
1.622098613E1,-1.279145082E0,2.966162108E0,-4.470254838E-1,3.261006221E0
1.623096313E1,-1.595935532E0,3.117110903E0,-4.324694252E-1,3.528515326E0
1.624094012E1,-1.910932640E0,3.106196491E0,-4.053072082E-1,3.669386069E0
1.625091813E1,-2.206833327E0,3.012431125E0,-4.665563536E-1,3.763313626E0
1.626089512E1,-2.467392858E0,2.839360558E0,-5.617541407E-1,3.803362146E0
1.627087213E1,-2.740934085E0,2.476350793E0,-6.178201680E-1,3.745228253E0
1.628085013E1,-3.137642524E0,2.002180195E0,-6.180448472E-1,3.772996896E0
1.629082712E1,-3.674485041E0,1.368399321E0,-4.899716748E-1,3.951509744E0
1.630080413E1,-4.160477539E0,6.542619163E-1,-2.424947043E-1,4.218582190E0
1.631078212E1,-4.642416455E0,4.412016571E-2,-7.635571942E-2,4.643253959E0
1.632075913E1,-5.343151749E0,-3.929925334E-1,-6.180433854E-2,5.357941165E0
1.633073613E1,-6.325465268E0,-8.253409213E-1,-3.347368701E-1,6.387859365E0
1.634071412E1,-7.212755685E0,-1.153053385E0,-7.105888025E-1,7.338822325E0
1.635069113E1,-7.961225601E0,-1.067820277E0,-1.017189821E0,8.096667731E0
1.636066812E1,-8.428032800E0,-5.930263656E-1,-1.088512476E0,8.518701577E0
1.637064613E1,-8.819179952E0,-1.047821045E-3,-8.806322656E-1,8.863038379E0
1.638062313E1,-9.062608895E0,4.444579715E-1,-4.255042950E-1,9.083472727E0
1.639060112E1,-9.234112408E0,6.428575069E-1,1.107906302E-1,9.257125488E0
1.640057783E1,-9.292158887E0,7.097619331E-1,6.283037871E-1,9.340382457E0
1.641055483E1,-9.208555398E0,9.163171649E-1,1.017922477E0,9.309849399E0
1.642053283E1,-9.128190097E0,1.350341949E0,1.226420739E0,9.308672604E0
1.643050983E1,-8.858700113E0,2.152475857E0,1.043491182E0,9.175979177E0
1.644048683E1,-8.349325184E0,2.953889971E0,5.446207756E-1,8.873179181E0
1.645046483E1,-7.954891312E0,3.168485125E0,8.362395465E-2,8.563094460E0
1.646044183E1,-7.737405295E0,2.924397785E0,-5.206074303E-1,8.287977751E0
1.647041883E1,-7.650583498E0,2.254921998E0,-1.159010675E0,8.059739874E0
1.648039683E1,-7.463939790E0,1.334189016E0,-1.631206668E0,7.755726447E0
1.649037383E1,-7.075429147E0,5.442108858E-1,-2.047422003E0,7.385783639E0
1.650035083E1,-6.395493861E0,6.133846164E-2,-2.289637502E0,6.793271968E0
1.651032883E1,-5.687792487E0,-1.032957423E-1,-2.340775058E0,6.151494230E0
