"Time (s)","Acceleration x (m/s^2)","Acceleration y (m/s^2)","Acceleration z (m/s^2)","Absolute acceleration (m/s^2)"
2.898958395E-3,-1.697170715E0,1.771865387E0,9.425898743E0,9.739992941E0
1.287795836E-2,-1.697021027E0,1.822759552E0,9.347761230E0,9.673829271E0
2.285595832E-2,-1.786684570E0,1.934577026E0,9.215137024E0,9.584027358E0
3.283495840E-2,-1.840722198E0,2.044149170E0,9.157806244E0,9.562019621E0
4.281295836E-2,-1.853745117E0,2.023941193E0,9.263486481E0,9.661515962E0
5.279095832E-2,-1.864373016E0,1.895957336E0,9.400751038E0,9.769578345E0
6.276995840E-2,-1.938468933E0,1.705553284E0,9.550439758E0,9.893304472E0
7.274795836E-2,-2.141746216E0,1.769620056E0,9.416168976E0,9.817477791E0
8.272695832E-2,-2.090852051E0,1.863474884E0,9.481133881E0,9.886157019E0
9.270495840E-2,-2.293979645E0,2.064207458E0,8.571026459E0,9.109653649E0
1.026839584E-1,-2.214944000E0,2.204465790E0,7.909701691E0,8.504647387E0
1.126619583E-1,-2.226769409E0,2.941233673E0,7.729626160E0,8.564839642E0
1.226409584E-1,-2.031874695E0,3.251688080E0,6.838828583E0,7.840380509E0
1.326189584E-1,-2.067051544E0,3.044219513E0,5.730533295E0,6.810211918E0
1.425979583E-1,-2.146536255E0,2.268233185E0,5.458399200E0,6.288610459E0
1.525759584E-1,-2.320923615E0,1.790875854E0,5.616320801E0,6.335375450E0
1.625539584E-1,-2.673141174E0,1.778302002E0,5.865702209E0,6.686890470E0
1.725329583E-1,-2.884351959E0,1.683099976E0,6.374943237E0,7.196680695E0
1.825109584E-1,-3.256328430E0,1.229692841E0,6.617888031E0,7.477450188E0
1.924899584E-1,-3.741170197E0,6.448590088E-1,6.866371307E0,7.845970463E0
2.024679583E-1,-4.331841888E0,2.915936279E-1,6.454128571E0,7.778538204E0
2.124469584E-1,-5.399571533E0,4.334985352E-1,4.336332550E0,6.938809243E0
2.224249584E-1,-5.210514679E0,8.253836060E-1,1.363364868E0,5.448805840E0
2.324039583E-1,-4.151766357E0,1.297651520E0,-1.152453461E0,4.499912481E0
2.423819584E-1,-2.851570129E0,1.150507507E0,-2.545756073E0,3.991991196E0
2.523599584E-1,-2.173629913E0,3.052153015E-1,-2.661315765E0,3.449699260E0
2.623389583E-1,-2.305805054E0,-1.459914093E0,-1.813329163E0,3.276621546E0
2.723169584E-1,-2.535277863E0,-3.388204193E0,-1.069525909E0,4.364796349E0
2.822959584E-1,-2.908751221E0,-4.637655945E0,-6.345304871E-1,5.511017625E0
2.922739583E-1,-3.098406830E0,-5.587580566E0,-2.637515259E-1,6.394587269E0
3.022529584E-1,-3.276087341E0,-6.054759064E0,-3.097059631E-1,6.891209863E0
3.122273750E-1,-4.045786743E0,-6.086942139E0,-2.164498901E-1,7.312052074E0
3.222053751E-1,-5.831722870E0,-6.569388885E0,3.526666260E-1,8.791486547E0
3.321843750E-1,-8.285121002E0,-7.578889618E0,7.785310364E-1,1.125561675E1
3.421623750E-1,-1.026595184E1,-8.403524780E0,1.285826111E0,1.332900389E1
3.521413751E-1,-1.167332520E1,-8.758736115E0,2.006577301E0,1.473120266E1
3.621193750E-1,-1.286050644E1,-8.262218628E0,2.345322876E0,1.546471538E1
3.720983750E-1,-1.399305130E1,-7.558382263E0,2.907254333E0,1.616745975E1
3.820763751E-1,-1.462982712E1,-6.996450806E0,3.820355530E0,1.666065070E1
3.920553750E-1,-1.521121811E1,-7.143744507E0,4.992867279E0,1.753119978E1
4.020333750E-1,-1.585966965E1,-8.221802673E0,5.454956360E0,1.867842899E1
4.120123751E-1,-1.649734360E1,-9.289382629E0,4.918771362E0,1.956142344E1
4.219903750E-1,-1.716106339E1,-9.716594238E0,4.304299164E0,2.018517504E1
4.319683750E-1,-1.734697678E1,-9.481582947E0,4.406386871E0,2.025424064E1
4.419473751E-1,-1.808823532E1,-9.419462128E0,5.525160370E0,2.112907762E1
4.519253750E-1,-2.035467224E1,-1.067520081E1,7.546107788E0,2.419124505E1
4.619043750E-1,-2.272738815E1,-1.216086136E1,9.521998901E0,2.747888616E1
4.718823751E-1,-2.377520920E1,-1.251218079E1,1.039213943E1,2.880645418E1
4.818613750E-1,-2.298096085E1,-1.105600891E1,9.933493195E0,2.736848884E1
4.918393750E-1,-2.202415054E1,-9.104367371E0,8.077203369E0,2.516334490E1
5.018183751E-1,-2.163795364E1,-7.818092194E0,5.515879669E0,2.365900530E1
5.117963750E-1,-2.125684616E1,-7.187154236E0,3.331472168E0,2.268495981E1
5.217743750E-1,-2.129561554E1,-6.199058990E0,1.721569977E0,2.224624410E1
5.317533751E-1,-2.121134079E1,-5.176685028E0,5.390290833E-1,2.184054941E1
5.417313750E-1,-2.085642883E1,-5.210215302E0,3.815565491E-1,2.150075702E1
5.517103750E-1,-2.019225998E1,-6.086792450E0,3.912863159E-1,2.109335228E1
5.616883751E-1,-1.832369568E1,-5.163961487E0,1.624122620E-1,1.903813802E1
5.716673750E-1,-1.723770401E1,-3.760629730E0,2.462379456E-1,1.764486919E1
5.816453750E-1,-1.701736221E1,-2.030826874E0,4.376898193E-1,1.714369992E1
5.916243751E-1,-1.696332458E1,3.695814514E-1,4.351451111E-1,1.697292911E1
6.016023750E-1,-1.679537384E1,2.467319183E0,-1.112785950E0,1.701207039E1
6.115803750E-1,-1.696422272E1,4.252656555E0,-2.173180847E0,1.762363910E1
6.215593751E-1,-1.616518433E1,4.738246765E0,-2.897524567E0,1.709268309E1
6.315373750E-1,-1.296873138E1,4.205803986E0,-2.934347992E0,1.394586602E1
6.415163750E-1,-9.460626526E0,2.548450470E0,-4.176614685E0,1.065092317E1
6.514943751E-1,-6.697971497E0,-9.728269958E-1,-5.875132599E0,8.962499517E0
6.614733750E-1,-4.083807678E0,-2.716251526E0,-6.339467010E0,8.015257294E0
6.714513750E-1,-1.810036011E0,-3.466341705E0,-5.839506683E0,7.027915301E0
6.814303751E-1,-1.754351807E0,-4.201013947E0,-4.358935547E0,6.302903104E0
6.914083750E-1,-3.092269592E0,-3.273842010E0,-3.184328156E0,5.515443640E0
7.013863750E-1,-3.826792145E0,-4.466711426E0,-1.829645233E0,6.159825546E0
7.113653751E-1,-6.206693115E0,-2.750979309E0,-1.128652954E-1,6.789967979E0
7.213433750E-1,-6.910379791E0,-3.759581909E0,5.098397827E-1,7.883383892E0
7.313223750E-1,-8.585695953E0,-5.339696045E0,7.967930603E-1,1.014206133E1
7.413003751E-1,-9.187594299E0,-8.099057922E0,1.499731293E0,1.233919860E1
7.512793751E-1,-1.033376083E1,-8.279432831E0,2.702480164E0,1.351440047E1
7.612573750E-1,-9.711654510E0,-1.003872437E1,4.207450562E0,1.458748986E1
7.712363750E-1,-9.370513916E0,-1.086171295E1,5.462141418E0,1.534986411E1
7.812143750E-1,-8.419990540E0,-1.136197266E1,6.040388947E0,1.537780745E1
7.911933750E-1,-7.259603577E0,-1.187989563E1,6.109545135E0,1.520395692E1
8.011713750E-1,-6.328689423E0,-1.086530548E1,5.102888489E0,1.357006426E1
8.111493750E-1,-7.606731720E0,-7.245832214E0,3.604953461E0,1.110676107E1
8.211283750E-1,-7.987839203E0,-6.155349884E0,2.569706268E0,1.040659875E1
8.311063751E-1,-7.962691498E0,-6.223757629E0,2.185605011E0,1.034004276E1
8.410853751E-1,-7.725584564E0,-5.938151550E0,1.420096893E0,9.846978007E0
8.510633750E-1,-7.660769348E0,-5.968987427E0,5.626799011E-1,9.727939483E0
8.610423750E-1,-7.031927032E0,-5.539380798E0,-4.267625427E-1,8.961856040E0
8.710203751E-1,-6.619684296E0,-5.162614288E0,-1.603016510E0,8.546488659E0
8.809993750E-1,-5.864654388E0,-6.491850128E0,-1.879491577E0,8.948227633E0
8.909773750E-1,-5.023553467E0,-7.221882019E0,-1.228944397E0,8.882678293E0
9.009563751E-1,-4.066443787E0,-5.073699188E0,-2.381547546E0,6.924605204E0
9.109343750E-1,-4.163442078E0,-2.699935455E0,-3.997287598E0,6.371986310E0
9.209123750E-1,-4.884941711E0,-2.010768585E0,-1.635948029E0,5.530114988E0
9.308913751E-1,-5.496120758E0,-2.642604675E0,1.685195618E0,6.326972983E0
9.408693750E-1,-7.544311523E0,-4.385280762E0,2.167642365E0,8.991440215E0
9.508483750E-1,-1.017973114E1,-5.141508179E0,2.492766266E0,1.167372760E1
9.608263751E-1,-1.157767410E1,-6.272256775E0,3.874692535E0,1.372577812E1
9.708053750E-1,-1.152992340E1,-7.782915344E0,6.482719116E0,1.534726529E1
9.807833750E-1,-1.087204147E1,-7.337591400E0,4.113895111E0,1.374647832E1
9.907623751E-1,-1.029080017E1,-7.475454712E0,2.298320618E0,1.292537307E1
1.000740375E0,-1.010114456E1,-9.392368469E0,2.700683899E0,1.405501336E1
1.010719375E0,-4.211941223E0,-1.114013397E1,-1.385967865E0,1.199016016E1
1.020697375E0,4.667294312E0,-7.284302216E0,-1.055500076E1,1.364744431E1
1.030676375E0,4.801714783E0,-8.049510956E0,-8.573720856E0,1.270274698E1
1.040654375E0,-1.135388947E0,-1.290900558E1,-7.547005920E0,1.499629393E1
1.050633375E0,-5.362448730E0,-1.415531387E1,-3.614832916E0,1.556264066E1
1.060611375E0,-6.866071930E0,-1.167302582E1,3.536695404E0,1.399680999E1
1.070589375E0,-7.402256927E0,-9.763446808E0,7.785460052E0,1.451660048E1
1.080568375E0,-7.563621368E0,-8.730594635E0,9.308243408E0,1.483492657E1
1.090546375E0,-7.757468262E0,-7.682623901E0,8.985813904E0,1.414022190E1
1.100525375E0,-8.166417847E0,-8.241262207E0,8.356821899E0,1.429843542E1
1.110503375E0,-8.270002441E0,-9.709708557E0,7.949967957E0,1.502908418E1
1.120482375E0,-7.439679108E0,-9.485624542E0,7.111561432E0,1.399643541E1
1.130460375E0,-5.882167969E0,-9.096433868E0,4.317920837E0,1.166145143E1
1.140439375E0,-4.137246552E0,-9.980645142E0,-1.606758728E0,1.092299227E1
1.150417375E0,-3.219205627E0,-9.752369843E0,-6.421795807E0,1.211245078E1
1.160396375E0,-3.170706482E0,-6.629563751E0,-8.082891541E0,1.092417643E1
1.170374375E0,-2.520907745E0,-4.378245392E0,-9.751771088E0,1.098276140E1
1.180353375E0,-3.576961670E0,-4.573289795E0,-6.902745667E0,9.019841023E0
1.190331375E0,-5.338049469E0,-5.076842651E0,-5.658233643E0,9.288956421E0
1.200310375E0,-6.733298035E0,-5.137616272E0,-4.511468353E0,9.596132038E0
1.210288375E0,-6.477480011E0,-6.807244263E0,-4.462969208E0,1.040261582E1
1.220267375E0,-5.743406525E0,-8.543483734E0,-4.889132996E0,1.139655449E1
1.230245375E0,-3.949985962E0,-8.012388153E0,-4.009861450E0,9.791820151E0
1.240224375E0,-1.730850677E0,-6.946155396E0,-8.922944641E-1,7.213952333E0
1.250202375E0,-2.468367004E-1,-6.575226746E0,4.706812134E0,8.090031865E0
1.260181375E0,6.177653503E-1,-6.737040253E0,1.053389465E1,1.251927642E1
1.270159375E0,5.498066711E-1,-6.455775146E0,1.405247772E1,1.547421889E1
1.280138375E0,6.261479187E-1,-6.993157654E0,1.175385773E1,1.369121933E1
1.290116375E0,8.952882385E-1,-7.532785492E0,6.806346130E0,1.019169986E1
1.300095375E0,1.348395996E0,-8.188571777E0,1.802551575E0,8.492353719E0
1.310073375E0,1.828148346E0,-8.762927399E0,-1.653012543E0,9.102937627E0
1.320051458E0,2.173629913E0,-9.391170959E0,-3.466042328E0,1.024364234E1
1.330029458E0,2.370620270E0,-9.843081207E0,-3.656895447E0,1.076470958E1
1.340008458E0,2.373614044E0,-9.952952728E0,-2.520907745E0,1.053804002E1
1.349986458E0,2.358046417E0,-9.713750153E0,-1.158441010E0,1.006276853E1
1.359965458E0,2.256557465E0,-9.493258667E0,-4.604425049E-1,9.768624213E0
1.369943458E0,1.708696747E0,-1.022942780E1,5.089416504E-3,1.037115536E1
1.379922458E0,8.213420105E-1,-1.247580643E1,7.439529419E-2,1.250303497E1
1.389900458E0,-6.286926270E-2,-1.544473251E1,6.845265198E-1,1.546002236E1
1.399879458E0,-8.419990540E-1,-1.801219345E1,1.707199860E0,1.811249863E1
1.409857458E0,-1.657952271E0,-1.953213272E1,2.831811218E0,1.980586199E1
1.419836458E0,-2.900218964E0,-1.814376984E1,2.772235107E0,1.858205967E1
1.429814458E0,-4.277654572E0,-1.220277420E1,1.409169617E0,1.300737429E1
1.439793458E0,-4.932842102E0,-7.444918213E0,1.995350647E-1,8.933059534E0
1.449771458E0,-2.940934296E0,-8.327033844E0,6.524931335E-1,8.855186868E0
1.459750458E0,-6.218069458E-1,-1.027568161E1,1.002764740E0,1.034320132E1
1.469728458E0,1.009650421E0,-1.002779709E1,9.195378113E-1,1.012035860E1
1.479707458E0,1.907333679E0,-8.911418610E0,1.118623810E0,9.181645965E0
1.489685458E0,2.391127625E0,-8.289761353E0,1.249002686E0,8.717662663E0
1.499664458E0,2.365381165E0,-8.894952850E0,1.095122681E0,9.269007927E0
1.509642458E0,1.295705566E0,-1.028526169E1,-3.909869385E-1,1.037392557E1
1.519621458E0,-5.822891235E-2,-1.102891525E1,-1.288221130E0,1.110404773E1
1.529599458E0,-7.289840698E-1,-1.180699722E1,-9.846524048E-1,1.187038928E1
1.539578458E0,-1.246457977E0,-1.264660126E1,4.981640625E-1,1.271763926E1
1.549556458E0,-1.849853210E0,-1.221519836E1,3.094514923E0,1.273613170E1
1.559535458E0,-2.266885986E0,-1.082444046E1,4.586163025E0,1.197247571E1
1.569513458E0,-2.147584076E0,-9.071286163E0,4.444258118E0,1.032723488E1
1.579492458E0,-1.485660553E0,-7.695497131E0,3.532803497E0,8.597009011E0
1.589470458E0,-4.279600525E-1,-6.803502045E0,2.792443085E0,7.366717604E0
1.599449458E0,3.601510620E-1,-6.636898499E0,1.746717682E0,6.872346988E0
1.609427458E0,5.282514954E-1,-8.094567261E0,1.859133911E-1,8.113915982E0
1.619406458E0,5.204676819E-1,-9.329648895E0,-9.958790588E-1,9.397074556E0
1.629384458E0,8.170010376E-1,-9.421108704E0,-2.320175171E-1,9.459313507E0
1.639363458E0,1.053808594E0,-9.479038239E0,1.587448883E0,9.668643774E0
1.649341458E0,1.016685791E0,-9.666897583E0,1.710792389E0,9.869618507E0
1.659320458E0,1.557511139E0,-9.545949097E0,1.058598633E0,9.729934027E0
1.669298458E0,2.459535370E0,-9.172475739E0,9.431886292E-1,9.543229548E0
1.679277458E0,3.511098633E0,-8.801996155E0,1.596430206E0,9.609970828E0
1.689255458E0,4.579876099E0,-8.281977539E0,2.440824280E0,9.773640069E0
1.699234458E0,5.688021698E0,-7.829468536E0,2.604583740E0,1.002187731E1
1.709212458E0,6.106401672E0,-7.941286011E0,2.067201233E0,1.022866002E1
1.719191458E0,4.963378601E0,-8.656947784E0,-3.592529297E-2,9.978935951E0
1.729169458E0,3.838018799E0,-9.276808777E0,-1.622775421E0,1.016970843E1
1.739148458E0,3.160078583E0,-1.017718643E1,-1.309626617E0,1.073668209E1
1.749126458E0,2.273771667E0,-1.117201767E1,1.320254517E-1,1.140181771E1
1.759105458E0,1.273102570E0,-1.166868484E1,1.026864624E0,1.178276059E1
1.769083458E0,2.773731995E-1,-1.180864380E1,1.248703308E0,1.187772134E1
1.779062458E0,-4.694238281E-1,-1.155926239E1,1.173559570E0,1.162816184E1
1.789040458E0,-6.491999817E-1,-1.116438354E1,1.123713226E0,1.123955746E1
1.799019458E0,-2.471360779E-1,-1.060799057E1,8.930429077E-1,1.064838325E1
1.808997458E0,4.748126221E-1,-9.842183075E0,6.559359741E-1,9.875437545E0
1.818976458E0,9.617500305E-1,-9.367969208E0,7.930508423E-1,9.450541775E0
1.828954458E0,1.070124664E0,-9.175768890E0,1.018482056E0,9.293933894E0
1.838933458E0,8.768765259E-1,-8.949589233E0,1.492546234E0,9.115467851E0
1.848912458E0,6.165678406E-1,-8.537047119E0,2.072590027E0,8.806642881E0
1.858890458E0,3.944297791E-1,-8.355624390E0,2.185305634E0,8.645669118E0
1.868869458E0,1.839674377E-1,-8.306975555E0,1.826052704E0,8.507300122E0
1.878847458E0,1.037342834E-1,-8.329428864E0,1.405726776E0,8.447852613E0
1.888826458E0,3.734733582E-1,-8.465645599E0,1.858385468E0,8.675265662E0
1.898804458E0,8.601113892E-1,-8.429121552E0,2.633024597E0,8.872581375E0
1.908783458E0,1.202748871E0,-8.265212402E0,2.106868744E0,8.613897887E0
1.918761458E0,1.360670471E0,-8.108488312E0,8.223898315E-1,8.262888833E0
1.928740458E0,1.578168182E0,-7.979756012E0,2.245330811E-2,8.134348466E0
1.938718458E0,1.942660217E0,-8.054750061E0,-2.499801636E-2,8.285743911E0
1.948697458E0,2.181563416E0,-8.406518555E0,-2.665956116E-1,8.689064758E0
1.958675458E0,2.414179688E0,-8.826096039E0,-4.474195862E-1,9.161245501E0
1.968654458E0,2.459984436E0,-9.406738586E0,-7.095245361E-1,9.748932215E0
1.978632458E0,2.151326294E0,-9.784702606E0,-1.179397430E0,1.008759576E1
1.988611458E0,1.973645782E0,-9.931098175E0,-1.491797791E0,1.023462013E1
1.998589458E0,1.909129944E0,-9.937983856E0,-2.162552948E0,1.034818513E1
2.008568458E0,1.674567719E0,-9.556876373E0,-3.761378174E0,1.040605731E1
2.018546458E0,1.237925720E0,-9.028475189E0,-5.981860657E0,1.090084773E1
2.028525458E0,1.722917175E-1,-8.215216370E0,-7.074887695E0,1.084313148E1
2.038503458E0,-1.027912445E0,-7.959697723E0,-7.232509918E0,1.080382301E1
2.048482458E0,-1.834734650E0,-7.958649902E0,-6.672225037E0,1.054632384E1
2.058460458E0,-2.094145203E0,-8.090825043E0,-6.237528992E0,1.042850238E1
2.068439458E0,-1.754052429E0,-7.656877441E0,-6.143524475E0,9.972329971E0
2.078417458E0,-1.168470154E0,-6.477779388E0,-6.248755646E0,9.076006579E0
2.088396458E0,-4.291575623E-1,-4.977000275E0,-6.758445740E0,8.404242784E0
2.098374458E0,3.140469360E-1,-3.701352997E0,-7.289541321E0,8.181445603E0
2.108353458E0,5.764512634E-1,-3.029849396E0,-6.909331970E0,7.566449081E0
2.118331458E0,3.983216858E-1,-3.419788513E0,-5.818550262E0,6.760853555E0
2.128310458E0,1.115180969E-1,-4.472848663E0,-4.401447144E0,6.276268669E0
2.138288458E0,-2.176473999E-1,-5.655539246E0,-3.611390076E0,6.713764430E0
2.148267458E0,-5.631289673E-1,-7.016658783E0,-3.909869385E0,8.052185624E0
2.158245458E0,-8.271798706E-1,-8.516988831E0,-4.103716278E0,9.490195602E0
2.168224458E0,-1.058748322E0,-1.015847534E1,-4.629423065E0,1.121370265E1
2.178203458E0,-1.230890350E0,-1.185908890E1,-5.411097565E0,1.309324472E1
2.188181458E0,-1.822310486E0,-1.241623032E1,-5.419031067E0,1.366928998E1
2.198160458E0,-2.758463745E0,-1.158695480E1,-4.418062592E0,1.270377585E1
2.208138458E0,-2.820584564E0,-1.143936172E1,-3.115621033E0,1.218695156E1
2.218117458E0,-2.087109833E0,-1.226384720E1,-1.507964172E0,1.253123823E1
2.228095458E0,-8.572673035E-1,-1.328113174E1,-2.924468536E0,1.362629384E1
2.238074458E0,6.358776855E-1,-1.499940857E1,-6.569239197E0,1.638723593E1
2.248052458E0,2.153721313E0,-1.749756363E1,-8.316256256E0,1.949264904E1
2.258031458E0,3.561394043E0,-1.927047684E1,-6.844217377E0,2.075760383E1
2.268009458E0,4.409829712E0,-2.010963181E1,-4.051624603E0,2.098236286E1
2.277988458E0,5.248834991E0,-2.109682892E1,-1.452279968E0,2.178842758E1
2.287966458E0,6.499633942E0,-2.294353867E1,-2.121089172E-1,2.384735201E1
2.297945458E0,7.742499390E0,-2.608760056E1,-1.714684296E0,2.726626747E1
2.307923458E0,8.298443298E0,-2.988280838E1,-4.062402191E0,3.127857908E1
2.317903000E0,7.627239075E0,-3.283002960E1,-5.238656158E0,3.410907706E1
2.327881000E0,5.507048035E0,-3.222214371E1,-4.794978790E0,3.303915775E1
2.337860000E0,3.170856171E0,-2.725532227E1,-3.408412170E0,2.765003064E1
2.347838000E0,1.826801147E0,-2.102946899E1,-2.264790344E0,2.122981498E1
2.357817000E0,1.204994202E0,-1.570608902E1,-1.882185974E0,1.586429536E1
2.367795000E0,8.280780029E-1,-1.113669113E1,-1.785636749E0,1.130929269E1
2.377774000E0,5.797444153E-1,-7.190447388E0,-2.068249054E0,7.504418123E0
2.387752000E0,5.152285767E-1,-3.989054718E0,-2.300266571E0,4.633491591E0
2.397731000E0,5.360353088E-1,-1.492246857E0,-1.783990173E0,2.386787689E0
2.407709000E0,5.992039490E-1,1.889071655E-1,-7.620652771E-1,9.876612659E-1
2.417688000E0,5.508544922E-1,1.813329163E0,9.134005737E-1,2.103783243E0
2.427667000E0,3.974235535E-1,3.328628082E0,2.603535919E0,4.244538806E0
2.437645000E0,2.462379456E-1,4.351750488E0,3.325185242E0,5.482264343E0
2.447624000E0,1.046324158E-1,4.861141205E0,3.178340607E0,5.808914767E0
2.457602000E0,6.107299805E-2,4.838687897E0,2.064955902E0,5.261242567E0
2.467581000E0,8.981323242E-3,4.409380646E0,2.594105530E-1,4.417013944E0
2.477559000E0,-1.303788757E-1,3.601510620E0,-1.440753937E0,3.881191738E0
2.487538000E0,-2.812651062E-1,2.226619720E0,-2.406545563E0,3.290654492E0
2.497516000E0,-4.861889648E-1,2.447410583E-1,-2.922073517E0,2.972337722E0
2.507495000E0,-6.212081909E-1,-1.386267242E0,-3.167712708E0,3.513124006E0
2.517473000E0,-8.056246948E-1,-2.303709412E0,-2.926115112E0,3.810283172E0
2.527452000E0,-1.015937347E0,-2.832260284E0,-2.296075287E0,3.784942369E0
2.537430000E0,-1.268312531E0,-3.314856720E0,-1.741478577E0,3.953433872E0
2.547409000E0,-1.528621216E0,-3.594624939E0,-1.014590149E0,4.035765658E0
2.557387000E0,-1.722767487E0,-3.392694855E0,-7.873626709E-2,3.805851493E0
2.567366000E0,-1.823507996E0,-2.585273895E0,7.005432129E-1,3.240306053E0
2.577344000E0,-1.769620056E0,-1.411864014E0,1.158441010E0,2.543010167E0
2.587323000E0,-1.454225922E0,-4.174818420E-1,1.152752838E0,1.902078659E0
2.597301000E0,-8.771759033E-1,2.112107849E-1,9.026229858E-1,1.276235016E0
2.607280000E0,-1.805245972E-1,5.231620789E-1,5.896238708E-1,8.086680407E-1
2.617258000E0,4.610412598E-1,6.270460510E-1,7.858657837E-2,7.822542065E-1
2.627237000E0,8.758287048E-1,5.965095520E-1,-4.096980286E-1,1.136112688E0
2.637216000E0,9.547146606E-1,4.186793518E-1,-8.274792480E-1,1.330974977E0
2.647194000E0,8.716374207E-1,3.966751099E-2,-1.116528168E0,1.417025213E0
2.657173000E0,7.497908020E-1,-3.987707520E-1,-1.163231049E0,1.440246795E0
2.667151000E0,7.418572998E-1,-1.196611633E0,-1.151854706E0,1.819065946E0
2.677130000E0,8.054750061E-1,-2.205663300E0,-1.206940155E0,2.640160055E0
2.687108000E0,9.868977356E-1,-3.491639099E0,-2.080972595E0,4.182816955E0
2.697087000E0,1.552421722E0,-5.157973938E0,-3.424578552E0,6.382981013E0
2.707065000E0,2.680924988E0,-7.499255219E0,-5.036127319E0,9.422779102E0
2.717044000E0,4.075724487E0,-1.082683548E1,-8.745264130E0,1.450212196E1
2.727022000E0,5.545967102E0,-1.563887878E1,-1.211281128E1,2.054391583E1
2.737001000E0,5.564827881E0,-2.032174072E1,-4.827161865E0,2.161578005E1
2.746979000E0,4.359384613E0,-2.404045761E1,4.345762939E0,2.481599266E1
2.756958000E0,2.520608368E0,-2.638173889E1,5.061724091E0,2.698093149E1
2.766936000E0,-1.243913269E-1,-2.658651306E1,-5.243595886E0,2.709895658E1
2.776915000E0,-1.333277435E0,-2.553240509E1,-1.739218277E1,3.092198829E1
2.786894000E0,-1.236728210E0,-2.362537079E1,-1.116363510E1,2.615940348E1
2.796872000E0,-1.535207520E0,-1.949126770E1,9.610015869E-1,1.957523698E1
2.806851000E0,-1.702110443E0,-1.618239853E1,-2.670446777E-1,1.627385987E1
2.816829000E0,-8.785231018E-1,-1.651755157E1,-8.514893188E0,1.860388989E1
2.826808000E0,1.164428558E0,-1.802297104E1,-9.606722717E0,2.045660041E1
2.836786000E0,2.963836670E0,-1.683743637E1,-5.512137451E0,1.796294104E1
2.846765000E0,4.229305115E0,-1.710118790E1,-6.917265472E0,1.892580806E1
2.856743000E0,5.517226868E0,-1.982866608E1,-9.304351501E0,2.258731386E1
2.866722000E0,6.585255890E0,-2.355935806E1,-1.023870850E1,2.651867454E1
2.876700000E0,6.732399902E0,-2.602278534E1,-9.574539642E0,2.853388117E1
2.886679000E0,6.094576263E0,-2.693274307E1,-7.451055450E0,2.860130655E1
2.896658000E0,5.148244171E0,-2.779135757E1,-5.749543762E0,2.884304470E1
2.906636000E0,4.558171234E0,-2.852333542E1,-4.833149414E0,2.928680457E1
2.916615000E0,4.325854340E0,-2.812246902E1,-3.902684326E0,2.871963135E1
2.926593000E0,4.298760681E0,-2.569676331E1,-2.908451843E0,2.621568385E1
2.936572000E0,4.309089203E0,-2.175366302E1,-2.040856018E0,2.227005160E1
2.946550000E0,4.017645264E0,-1.788226364E1,-1.666185150E0,1.840361376E1
2.956529000E0,3.424129486E0,-1.444615906E1,-1.848206635E0,1.496101741E1
2.966507000E0,2.951861572E0,-1.177466446E1,-2.237097931E0,1.234345239E1
2.976486000E0,2.543510742E0,-9.530381470E0,-2.837200012E0,1.026388434E1
2.986465000E0,1.973196716E0,-7.015311584E0,-2.707868958E0,7.774358893E0
2.996443000E0,1.187330933E0,-4.286486206E0,-1.865570526E0,4.823284371E0
3.006422000E0,5.716612244E-1,-1.931882629E0,-1.678609314E0,2.622345568E0
3.016400000E0,-1.841171265E-2,5.427713013E-1,-1.231489105E0,1.345921652E0
3.026379000E0,-6.027964783E-1,2.768043823E0,-9.101074219E-2,2.834380560E0
3.036357000E0,-1.189576263E0,4.146527252E0,8.497828674E-1,4.396693173E0
3.046336000E0,-1.727557526E0,4.935835876E0,1.004111938E0,5.324957426E0
3.056314000E0,-2.018253021E0,5.005141754E0,-9.879455566E-3,5.396747802E0
3.066293000E0,-1.912423096E0,4.229305115E0,-1.399140472E0,4.847883859E0
3.076272000E0,-1.646575928E0,3.225342865E0,-2.378254395E0,4.332452290E0
3.086250000E0,-1.317111053E0,2.102677460E0,-2.263592834E0,3.358554235E0
3.096229000E0,-8.451425171E-1,9.330097961E-1,-9.348060608E-1,1.568003675E0
3.106207000E0,-1.820214844E-1,4.595443726E-2,8.020321655E-1,8.237106444E-1
3.116186000E0,3.227288818E-1,-8.014334106E-1,1.930834808E0,2.115318534E0
3.126164000E0,5.924679565E-1,-1.632804565E0,2.238145752E0,2.833084085E0
3.136143000E0,7.429051208E-1,-2.234702911E0,2.010169830E0,3.096221547E0
3.146121000E0,8.014334106E-1,-2.559677124E0,1.480571136E0,3.063712353E0
3.156100000E0,7.307803345E-1,-2.304906921E0,1.043031006E0,2.633353279E0
3.166079000E0,4.619393921E-1,-1.618733826E0,5.846841431E-1,1.782005260E0
3.176057000E0,1.128652954E-1,-9.360035706E-1,1.707948303E-1,9.581294970E-1
3.186036000E0,-1.140628052E-1,-2.315684509E-1,-1.154100037E-1,2.827609236E-1
3.196014000E0,-4.790039062E-3,4.486170959E-1,-3.755690002E-1,5.850917169E-1
3.205993000E0,2.496807861E-1,1.007405090E0,-8.434959412E-1,1.337419498E0
3.215971000E0,4.909790039E-1,1.379680939E0,-1.441652069E0,2.054979456E0
3.225950000E0,7.185058594E-1,1.322499847E0,-2.104324036E0,2.587167595E0
3.235929000E0,9.190887451E-1,8.657995605E-1,-2.715054016E0,2.994303143E0
3.245907000E0,1.174757080E0,2.013313293E-1,-3.055296478E0,3.279546473E0
3.255886000E0,1.428479462E0,-5.872288513E-1,-3.168760529E0,3.525114833E0
3.265864000E0,1.517394562E0,-1.347647552E0,-3.419189758E0,3.976116043E0
3.275843000E0,1.232836304E0,-2.057770844E0,-4.189787292E0,4.827900553E0
3.285821000E0,5.996530151E-1,-2.646496582E0,-5.171894989E0,5.840550117E0
3.295800000E0,-2.508782959E-1,-3.227288818E0,-5.695805511E0,6.551376455E0
3.305779000E0,-1.381926270E0,-3.332669678E0,-3.782334595E0,5.227089284E0
3.315756958E0,-2.363435211E0,-3.487447815E0,8.589138794E-1,4.299517567E0
3.325735958E0,-2.190993805E0,-4.102818146E0,4.905449066E0,6.759955705E0
3.335713958E0,-8.427474976E-1,-4.473896484E0,4.015100555E0,6.070173438E0
3.345692958E0,1.436562653E0,-4.837490387E0,4.426295471E-1,5.065663472E0
3.355670958E0,4.772525482E0,-6.608757019E0,-1.055934174E1,1.333987881E1
3.365649958E0,8.686436462E0,-1.534010010E1,-2.624507309E1,3.161608310E1
3.375628958E0,5.038672028E0,-2.538346481E1,-1.648656601E1,3.068412229E1
3.385606958E0,7.932005310E-1,-2.950798782E1,5.226231995E0,2.997772529E1
3.395585958E0,1.148112488E-1,-2.696687210E1,1.625664413E1,3.148815414E1
3.405563958E0,-4.779560852E-1,-2.209689926E1,9.367819519E0,2.400536277E1
3.415542958E0,5.843847656E-1,-1.902992706E1,-7.455246735E0,2.044652375E1
3.425521958E0,1.459914093E0,-2.142539566E1,-2.117556519E1,3.015930187E1
3.435499958E0,1.463506622E0,-2.580154541E1,-8.860524445E0,2.731978204E1
3.445478958E0,-1.941462708E-1,-2.374616959E1,3.208128662E0,2.396268667E1
3.455456958E0,-1.969903564E0,-1.966101471E1,-1.554517365E0,1.982050816E1
3.465435958E0,-1.957329712E0,-2.022369461E1,-1.260214371E1,2.390905664E1
3.475413958E0,-4.490661621E-3,-2.476495102E1,-1.955608292E1,3.155539888E1
3.485392958E0,2.487527161E0,-2.594973724E1,-1.688803116E1,3.106094414E1
3.495371958E0,4.229305115E0,-2.352013962E1,-1.021999741E1,2.599100491E1
3.505349958E0,5.829178162E0,-2.072754684E1,-8.008645935E0,2.297278664E1
3.515328958E0,6.992409210E0,-1.946312622E1,-7.770191803E0,2.209259943E1
3.525306958E0,6.648125153E0,-1.928484695E1,-5.473667450E0,2.112022551E1
3.535285958E0,5.256169739E0,-1.847353409E1,-4.166286163E0,1.965341503E1
3.545264958E0,3.689078522E0,-1.764276169E1,-4.952451324E0,1.869232769E1
3.555242958E0,2.807262268E0,-1.763063690E1,-5.845643921E0,1.878541008E1
3.565221958E0,2.852019196E0,-1.820663910E1,-4.963228912E0,1.908531797E1
3.575199958E0,2.836152191E0,-1.866962631E1,-3.269650726E0,1.916479381E1
3.585178958E0,2.509082336E0,-1.907618088E1,-1.820514221E0,1.932641827E1
3.595157958E0,2.105371857E0,-1.944710953E1,-7.912545776E-1,1.957673986E1
3.605135958E0,1.719324646E0,-1.898921173E1,-1.196312256E0,1.910438176E1
3.615114958E0,1.482367401E0,-1.757360550E1,-2.485431519E0,1.781028897E1
3.625092958E0,1.372645569E0,-1.503907608E1,-3.805835724E0,1.557377124E1
3.635071958E0,1.457519073E0,-1.209245361E1,-4.206103363E0,1.288577129E1
3.645050958E0,1.674717407E0,-8.944050751E0,-3.021167450E0,9.587918178E0
3.655028958E0,1.794468384E0,-5.741909637E0,-1.394200745E0,6.175227832E0
3.665007958E0,1.852397919E0,-2.753524017E0,-7.945477295E-1,3.412415370E0
3.674985958E0,1.994901581E0,-6.017486572E-2,-3.614982605E-1,2.028283591E0
3.684964958E0,2.113455048E0,2.294877777E0,7.634124756E-3,3.119810015E0
3.694943958E0,2.256258087E0,4.144132233E0,-6.661148071E-2,4.719000912E0
3.704921958E0,2.157313843E0,5.439837799E0,1.688488770E-1,5.854429796E0
3.714900958E0,1.968256989E0,6.079008636E0,3.613485718E-1,6.399918309E0
3.724878958E0,1.573827209E0,5.892197113E0,2.962339783E-1,6.105953936E0
3.734857958E0,1.038690033E0,5.302872620E0,4.610412598E-2,5.403837580E0
3.744836958E0,4.635859680E-1,4.502936096E0,-4.041595459E-3,4.526738536E0
3.754814958E0,-5.852828979E-2,3.494483185E0,1.820214844E-1,3.499710004E0
3.764793958E0,-3.363505554E-1,2.009271698E0,3.011737061E-1,2.059371276E0
3.774771958E0,-2.438429260E-1,7.589218140E-2,2.769241333E-1,3.767040899E-1
3.784750958E0,3.263214111E-2,-1.682501221E0,-7.514373779E-2,1.684494522E0
3.794729958E0,1.466949463E-1,-2.775827637E0,-4.969665527E-1,2.823776590E0
3.804707958E0,8.008346558E-2,-3.483106842E0,-5.995033264E-1,3.535229960E0
3.814686958E0,-9.984237671E-2,-3.570375366E0,-1.634600830E-1,3.575509468E0
3.824664958E0,-3.887416077E-1,-2.658321991E0,4.438270569E-1,2.723009053E0
3.834643958E0,-6.924600220E-1,-1.301244049E0,5.575904846E-1,1.575958155E0
3.844621958E0,-9.337582397E-1,-9.325607300E-2,1.924996948E-1,9.579442979E-1
3.854600958E0,-1.069825287E0,6.580316162E-1,-2.222877502E-1,1.275516992E0
3.864579958E0,-1.128203888E0,7.770341492E-1,-5.379812622E-1,1.471750631E0
3.874557958E0,-1.187181244E0,3.754193115E-1,-9.065148926E-1,1.540164996E0
3.884536958E0,-1.171164551E0,-8.113128662E-2,-1.406924286E0,1.832387687E0
3.894514958E0,-1.116528168E0,-4.861889648E-1,-1.694027252E0,2.086322887E0
3.904493958E0,-1.071920929E0,-8.150550842E-1,-1.896406403E0,2.325873279E0
3.914472958E0,-1.115779724E0,-1.153800659E0,-2.406395874E0,2.892570043E0
3.924450958E0,-1.289418640E0,-1.552122345E0,-3.115770721E0,3.712103365E0
3.934429958E0,-1.494043121E0,-2.100581818E0,-3.719165955E0,4.525130299E0
3.944407958E0,-1.587748260E0,-2.940634918E0,-4.259093170E0,5.413700481E0
3.954386958E0,-1.505120087E0,-3.986659698E0,-4.087549896E0,5.904820588E0
3.964365958E0,-1.289867706E0,-5.044060822E0,-2.891686707E0,5.955515115E0
3.974343958E0,-4.819976807E-1,-6.414311371E0,-8.090675354E-1,6.483078158E0
3.984322958E0,1.808838501E0,-8.623716888E0,-1.269060974E0,8.902297762E0
3.994300958E0,6.590195618E0,-1.301079391E1,-1.624017838E1,2.182784530E1
4.004279958E0,1.170296356E1,-1.803000641E1,-1.992207184E1,2.930749791E1
4.014258958E0,1.006402176E1,-2.321477463E1,-4.257296906E0,2.565803718E1
4.024236958E0,4.537813568E0,-2.386442368E1,1.166254761E1,2.694656724E1
4.034215958E0,2.823129272E-1,-2.171279800E1,1.085303101E1,2.427578175E1
4.044193958E0,-2.665656738E0,-1.695703766E1,-4.388723602E0,1.771744188E1
4.054172958E0,-2.428400116E0,-1.528636185E1,-1.611369141E1,2.234325483E1
4.064151958E0,4.430786133E-2,-1.617042343E1,-5.621709595E0,1.711981822E1
4.074129958E0,-1.553768921E-1,-1.693697937E1,-5.209167480E-2,1.693777216E1
4.084108958E0,-1.681004333E0,-1.643312714E1,-3.601510620E0,1.690693118E1
4.094086958E0,-3.884721680E0,-1.857143051E1,-1.134041748E1,2.210416618E1
4.104065958E0,-4.283342743E0,-2.816243591E1,-2.123289597E1,3.552894162E1
4.114044958E0,-2.538720703E0,-3.403188034E1,-1.800800217E1,3.858629451E1
4.124022958E0,-1.478325806E0,-2.961546432E1,-2.414628754E0,2.975048918E1
4.134001958E0,1.106798401E0,-2.346565292E1,1.506916351E0,2.354002266E1
4.143979958E0,3.905378723E0,-2.035317535E1,-2.977308655E0,2.093724186E1
4.153958958E0,6.057902527E0,-1.927856003E1,-6.283333740E0,2.116226223E1
4.163937958E0,8.606502686E0,-1.907169022E1,-5.809269562E0,2.171517601E1
4.173915958E0,1.069630692E1,-1.912557816E1,-2.998414764E0,2.211762222E1
4.183894958E0,1.149504593E1,-1.903471710E1,-1.227597198E0,2.227023868E1
4.193872958E0,1.137050491E1,-1.883697830E1,-1.139430542E0,2.203221359E1
4.203851958E0,1.070708450E1,-1.830094299E1,-1.949096832E0,2.129237308E1
4.213830958E0,9.520352325E0,-1.720387436E1,-2.286345520E0,1.979489270E1
4.223808958E0,7.820487213E0,-1.611009888E1,-2.197430420E0,1.804228385E1
4.233787958E0,5.708978119E0,-1.527947617E1,-2.131866760E0,1.644991425E1
4.243765958E0,3.366649017E0,-1.427641205E1,-2.137255554E0,1.482289202E1
4.253744958E0,1.098266144E0,-1.329460373E1,-2.139800262E0,1.351041902E1
4.263723958E0,-8.957373047E-1,-1.196491882E1,-1.741777954E0,1.212416670E1
4.273701958E0,-2.409689026E0,-9.911488953E0,-1.113235016E0,1.026077515E1
4.283680958E0,-3.315754852E0,-7.161258087E0,-2.380050659E-1,7.895219696E0
4.293658958E0,-3.659140778E0,-4.165537720E0,4.842430115E-1,5.565564394E0
4.303637958E0,-3.306474152E0,-1.637893982E0,3.832031250E-1,3.709759109E0
4.313616958E0,-2.360142059E0,5.450166321E-1,-2.664459229E-1,2.436864194E0
4.323594500E0,-1.134341125E0,2.206112366E0,-7.586224365E-1,2.594064294E0
4.333573500E0,-4.445755005E-2,3.429069214E0,-5.993536377E-1,3.481338382E0
4.343551500E0,6.536906433E-1,4.001778259E0,-2.338137817E-1,4.061552607E0
4.353530500E0,9.195378113E-1,4.089046783E0,1.360670471E-1,4.193371868E0
4.363508500E0,1.013692017E0,3.649411011E0,3.094065857E-1,3.800197977E0
4.373487500E0,1.148262177E0,2.701282654E0,3.249742126E-1,2.953141080E0
4.383466500E0,1.180295563E0,1.626517639E0,-7.005432129E-2,2.010861719E0
4.393444500E0,1.074315948E0,5.557942200E-1,-9.704319763E-1,1.550741820E0
4.403423500E0,9.912387085E-1,-5.270539856E-1,-1.861229553E0,2.173595071E0
4.413401500E0,9.315129089E-1,-1.649719391E0,-2.514620819E0,3.148429487E0
4.423380500E0,6.741979980E-1,-2.928809509E0,-3.084336090E0,4.306459938E0
4.433359500E0,3.369493103E-1,-3.849844208E0,-3.801644440E0,5.421008735E0
4.443337500E0,1.646575928E-2,-4.156107330E0,-3.675606537E0,5.548295475E0
4.453316500E0,-1.264869690E-1,-3.775448914E0,-1.793869629E0,4.181863424E0
4.463294500E0,-2.164498901E-1,-2.609972534E0,1.116378479E0,2.846947153E0
4.473273500E0,-6.709048462E-1,-1.157991943E0,3.446283417E0,3.697016100E0
4.483252500E0,-1.173858948E0,1.591191101E-1,4.536765747E0,4.688870564E0
4.493230500E0,-1.436412964E0,9.864486694E-1,3.879632263E0,4.252988323E0
4.503209500E0,-1.550176392E0,1.296454010E0,2.716850281E0,3.386017616E0
4.513187500E0,-1.085542603E0,1.206940155E0,1.515149231E0,2.220536978E0
4.523166500E0,-5.960604858E-1,8.014334106E-1,3.049159241E-1,1.044297532E0
4.533145500E0,-3.835025024E-1,1.454974365E-1,-5.387297058E-1,6.771066159E-1
4.543123500E0,-5.522016907E-1,-6.956034851E-1,-1.323847046E0,1.594164959E0
4.553102500E0,-6.686595154E-1,-1.116677856E0,-2.436782684E0,2.762604719E0
4.563080500E0,-1.848655701E-1,-1.426683197E0,-4.908592529E0,5.115064109E0
4.573059500E0,7.911048889E-1,-3.397035828E0,-9.158255310E0,9.799966310E0
4.583037500E0,1.068328400E0,-7.453749847E0,-1.127485382E1,1.355809873E1
4.593016500E0,-2.439926147E-2,-1.258552826E1,-9.462273102E0,1.574581624E1
4.602995500E0,2.351609802E-1,-2.045690964E1,-8.299042053E0,2.207746706E1
4.612973500E0,1.579814758E0,-2.830089798E1,-3.253783722E0,2.853110144E1
4.622952500E0,3.297941895E0,-3.461761230E1,4.764591980E-1,3.477761515E1
4.632930500E0,5.242847443E0,-3.896397400E1,-3.287763062E0,3.945235234E1
4.642909500E0,6.565796356E0,-3.171948898E1,-6.189478912E0,3.297795191E1
4.652888500E0,5.993985443E0,-1.904429718E1,-5.068160706E0,2.059852833E1
4.662866500E0,4.720284119E0,-1.217747681E1,-4.772226105E0,1.390489718E1
4.672845500E0,3.748804321E0,-8.867709503E0,-5.747298431E0,1.121254855E1
4.682823500E0,2.548001404E0,-8.755592651E0,-5.593119049E0,1.069746206E1
4.692802500E0,1.019230499E0,-1.225935654E1,-5.514382782E0,1.348106342E1
4.702780500E0,-8.665480042E-1,-1.807730804E1,-6.200256500E0,1.913068614E1
4.712759500E0,-2.409689026E0,-2.421065369E1,-6.537804565E0,2.519335709E1
4.722738500E0,-3.614683228E0,-2.945170486E1,-4.534969482E0,3.001724175E1
4.732716500E0,-3.842060394E0,-3.234488846E1,-3.084336090E0,3.271798231E1
4.742695500E0,-2.177521820E0,-3.304049194E1,-4.509821777E0,3.341787249E1
4.752673500E0,4.793032837E-1,-3.111309998E1,-7.553143158E0,3.202037934E1
4.762652500E0,2.790646820E0,-2.697151245E1,-9.006770325E0,2.857222612E1
4.772631500E0,4.403991852E0,-2.211890350E1,-7.826325073E0,2.387241924E1
4.782609500E0,5.675747223E0,-1.774619659E1,-6.096073151E0,1.960366568E1
4.792588500E0,6.506819000E0,-1.446516953E1,-5.049748993E0,1.664571380E1
4.802566500E0,6.495292969E0,-1.212673233E1,-4.094884644E0,1.435320689E1
4.812545500E0,5.998625793E0,-1.008677444E1,-2.390977936E0,1.197678194E1
4.822524500E0,5.196893005E0,-7.995922394E0,-9.595046997E-1,9.584525085E0
4.832502500E0,3.758085022E0,-6.322701874E0,-5.352868652E-1,7.374706370E0
4.842481500E0,1.964814148E0,-5.149591370E0,-3.493734741E-1,5.522757258E0
4.852459500E0,1.585203552E-1,-3.720213776E0,-1.745370483E-1,3.727677886E0
4.862438500E0,-1.148262177E0,-2.266287231E0,-8.143066406E-2,2.541888037E0
4.872416500E0,-2.039808197E0,-1.045426025E0,3.535647583E-1,2.319211309E0
4.882395500E0,-2.672392731E0,2.618055725E-1,8.161029053E-1,2.806465574E0
4.892374500E0,-3.029100952E0,1.360071716E0,9.677375793E-1,3.458578274E0
4.902352500E0,-2.943179626E0,1.883533173E0,9.126521301E-1,3.611500718E0
4.912331500E0,-2.395318909E0,2.079026642E0,9.842033386E-1,3.320927681E0
4.922309500E0,-1.469793549E0,2.350112915E0,1.294058990E0,3.059070522E0
4.932288500E0,-5.216651917E-1,2.435884552E0,1.339714050E0,2.828515840E0
4.942266500E0,2.103126526E-1,2.141147461E0,5.210664368E-1,2.213651755E0
4.952245500E0,7.948471069E-1,1.716630249E0,-4.933740234E-1,1.954998533E0
4.962224500E0,1.343905334E0,1.385219421E0,-1.407523041E0,2.388730940E0
4.972202500E0,2.025887146E0,1.003064117E0,-2.315534821E0,3.236055911E0
4.982181500E0,2.730771332E0,1.907034302E-1,-2.706222382E0,3.849301163E0
4.992159500E0,3.020718384E0,-1.017434235E0,-2.234253845E0,3.892531595E0
5.002138500E0,2.818638611E0,-1.607357483E0,-1.289268951E0,3.491494827E0
5.012117500E0,2.143841858E0,-1.667831726E0,-4.140390015E-1,2.747571450E0
5.022095500E0,1.089284821E0,-1.816472626E0,1.224453735E-1,2.121581271E0
5.032074500E0,-2.389031982E-1,-2.069895630E0,3.794609070E-1,2.117907750E0
5.042052500E0,-1.562301178E0,-2.145937500E0,6.369255066E-1,2.729744828E0
5.052031500E0,-2.619851990E0,-1.909878387E0,1.062490540E0,3.411765826E0
5.062009500E0,-3.294049988E0,-1.296304321E0,1.051712952E0,3.692867497E0
5.071988500E0,-3.494483185E0,-6.264472961E-1,4.899311829E-1,3.583836144E0
5.081967500E0,-3.159180450E0,-2.716850281E-1,-3.757186890E-1,3.193023396E0
5.091945500E0,-2.801873474E0,-1.661544800E-2,-1.475332031E0,3.166603171E0
5.101924500E0,-2.556982727E0,-3.203338623E-2,-2.541115723E0,3.605059767E0
5.111902500E0,-2.299518127E0,-5.251080322E-1,-3.406915283E0,4.143741523E0
5.121881500E0,-1.828747101E0,-1.516945496E0,-3.614832916E0,4.325789709E0
5.131859500E0,-1.004860382E0,-2.682122498E0,-3.543581085E0,4.556368333E0
5.141838500E0,1.148112488E-1,-4.242328033E0,-3.042123871E0,5.221594240E0
5.151817500E0,1.738035736E0,-6.501729584E0,-3.475173340E0,7.574304294E0
5.161795500E0,3.775897980E0,-9.369915161E0,-5.960155792E0,1.172928697E1
5.171774500E0,5.930068359E0,-1.390817780E1,-1.054093002E1,1.843134087E1
5.181752500E0,6.858886871E0,-2.060270645E1,-1.151255951E1,2.457752772E1
5.191731500E0,5.523513794E0,-2.666524933E1,-5.339845734E0,2.774993115E1
5.201709500E0,3.622766418E0,-3.056479019E1,-1.968855743E0,3.084164764E1
5.211688500E0,3.059936829E0,-2.935949661E1,-5.808820496E0,3.008464144E1
5.221667500E0,2.633323975E0,-2.284698944E1,-7.752827911E0,2.426985089E1
5.231645500E0,2.249222717E0,-1.743065277E1,-2.751727753E0,1.778928510E1
5.241624500E0,2.851719818E0,-1.495061005E1,-2.312091980E0,1.539476586E1
5.251602500E0,2.770438843E0,-1.320538925E1,-4.594844971E0,1.425377974E1
5.261581500E0,1.694176941E0,-1.234198471E1,-4.883444824E0,1.338068965E1
5.271559500E0,7.837701416E-1,-1.343860428E1,-4.331243134E0,1.414107661E1
5.281538500E0,3.197351074E-1,-1.625005783E1,-5.034480743E0,1.701506998E1
5.291517500E0,4.828958130E-1,-2.117436768E1,-8.779842224E0,2.292755251E1
5.301495500E0,1.294508057E0,-2.790512100E1,-1.176673096E1,3.031216730E1
5.311474500E0,2.189347229E0,-3.259831146E1,-1.014799713E1,3.421147464E1
5.321452833E0,3.112926636E0,-3.320934082E1,-6.305188293E0,3.394563344E1
5.331431833E0,3.901935883E0,-2.966067032E1,-5.291346588E0,3.038056642E1
5.341409833E0,4.821324005E0,-2.306748093E1,-5.949228516E0,2.430529081E1
5.351388833E0,6.215973816E0,-1.831965408E1,-5.310656433E0,2.006118461E1
5.361367833E0,7.108118591E0,-1.539578430E1,-4.537963257E0,1.755416289E1
5.371345833E0,7.342830505E0,-1.325403809E1,-4.027674408E0,1.567829221E1
5.381324833E0,7.297774200E0,-1.211580505E1,-3.596421204E0,1.459398800E1
5.391302833E0,7.138056335E0,-1.125150238E1,-2.907404022E0,1.363822394E1
5.401281833E0,6.425538025E0,-1.029573990E1,-2.227517853E0,1.233902892E1
5.411260833E0,5.088967438E0,-8.766220551E0,-1.472038879E0,1.024261250E1
5.421238833E0,3.198249207E0,-7.863148499E0,-8.550219727E-1,8.531644910E0
5.431217833E0,9.418414307E-1,-7.678432617E0,-4.644841003E-1,7.749912143E0
5.441195833E0,-9.240284729E-1,-6.476731567E0,-3.155438232E-1,6.549919719E0
5.451174833E0,-2.401755524E0,-4.859943695E0,-6.384223938E-1,5.458485639E0
5.461152833E0,-3.145409088E0,-3.325634308E0,-1.024170227E0,4.690668027E0
5.471131833E0,-3.008144531E0,-1.937271423E0,-1.198557587E0,3.773392953E0
5.481109833E0,-2.449955292E0,-8.626560974E-1,-5.331912231E-1,2.651556025E0
5.491088833E0,-1.975442047E0,1.199006653E-1,8.057743835E-1,2.136824702E0
5.501067833E0,-1.570683746E0,1.221160583E0,1.637893982E0,2.577009371E0
5.511045833E0,-1.007255402E0,1.779050446E0,1.613345032E0,2.604316825E0
5.521024833E0,-4.803511047E-1,2.008972321E0,4.210743713E-1,2.108082208E0
5.531002833E0,3.996688843E-2,1.989662476E0,-1.137035522E0,2.291986889E0
5.540981833E0,6.182144165E-1,1.874551849E0,-2.606080627E0,3.269218551E0
5.550959833E0,1.276395721E0,1.776356049E0,-3.795806580E0,4.380955882E0
5.560938833E0,1.904938660E0,1.582808533E0,-4.580325165E0,5.207057976E0
5.570917833E0,2.238894196E0,1.332379303E0,-4.371359711E0,5.088876845E0
5.580895833E0,2.215692444E0,5.432203674E-1,-2.751128998E0,3.573946297E0
5.590874833E0,1.848955078E0,-2.550695801E-1,-3.129991150E-1,1.892528419E0
5.600852833E0,1.099912720E0,-8.328680420E-1,2.164498901E0,2.566813718E0
5.610831833E0,1.442999268E-1,-1.281485138E0,4.106410675E0,4.304141640E0
5.620809833E0,-9.910890198E-1,-1.515598297E0,5.013075256E0,5.330123748E0
5.630788833E0,-1.987716522E0,-1.523980865E0,4.842729492E0,5.452115515E0
5.640767833E0,-2.397863617E0,-1.543889465E0,3.879931641E0,4.815310389E0
5.650745833E0,-2.296674042E0,-1.640289001E0,2.430346069E0,3.724492137E0
5.660724833E0,-1.988764343E0,-1.570234680E0,9.009764099E-1,2.689345470E0
5.670702833E0,-1.581461334E0,-1.097068634E0,-4.390370178E-1,1.974166417E0
5.680681833E0,-1.181193695E0,-8.746311951E-1,-1.557511139E0,2.141503962E0
5.690659833E0,-9.154962158E-1,-1.091081085E0,-2.479443970E0,2.859411418E0
5.700638833E0,-8.737330627E-1,-1.724713440E0,-3.357817383E0,3.874659145E0
5.710617833E0,-8.475375366E-1,-2.919229431E0,-4.918771362E0,5.782260117E0
5.720595833E0,-4.299060059E-1,-5.473517761E0,-7.806117096E0,9.543567466E0
5.730574833E0,4.372407532E-1,-8.858877869E0,-1.033226395E1,1.361714268E1
5.740552833E0,1.427731018E0,-1.304013290E1,-1.320718552E1,1.861486587E1
5.750531833E0,3.062182159E0,-1.811562836E1,-1.772434204E1,2.552851839E1
5.760509833E0,5.873635712E0,-2.365635635E1,-1.852951767E1,3.061806358E1
5.770488833E0,6.946454773E0,-2.603730515E1,-7.552993469E0,2.798646465E1
5.780467833E0,5.476661224E0,-2.308454544E1,4.031416626E0,2.406537713E1
5.790445833E0,3.206781464E0,-1.676543610E1,6.966513062E0,1.843625773E1
5.800424833E0,9.234297180E-1,-1.177810730E1,2.786605225E0,1.213843905E1
5.810402833E0,-7.694000244E-2,-9.420360260E0,-4.190086670E0,1.031047688E1
5.820381833E0,-7.301815796E-1,-9.558672638E0,-9.570647736E0,1.354616868E1
5.830359833E0,-1.873354340E0,-1.099059494E1,-9.293274536E0,1.451439235E1
5.840338833E0,-2.606380005E0,-1.268746628E1,-7.976462860E0,1.521147518E1
5.850316833E0,-3.394790497E0,-1.692290863E1,-9.600735168E0,1.975053303E1
5.860295833E0,-3.665278015E0,-2.507914764E1,-1.291110123E1,2.844458550E1
5.870274833E0,-2.975213013E0,-3.219355316E1,-1.193617859E1,3.446373626E1
5.880252833E0,-2.003284149E0,-3.263543427E1,-5.744005280E0,3.319756488E1
5.890231833E0,7.295828247E-1,-3.017589890E1,-4.915627899E0,3.058235705E1
5.900209833E0,3.602708130E0,-2.746578461E1,-8.949289856E0,2.911079901E1
5.910188833E0,5.442532196E0,-2.367701340E1,-9.499844971E0,2.608580408E1
5.920166833E0,7.725285187E0,-1.893906601E1,-6.374793549E0,2.142443104E1
5.930145833E0,9.608069916E0,-1.594139969E1,-5.678142242E0,1.945981837E1
5.940124833E0,1.068313431E1,-1.515972519E1,-7.541467438E0,2.002049843E1
5.950102833E0,1.056592804E1,-1.558020081E1,-7.720944214E0,2.034685411E1
5.960081833E0,9.036708069E0,-1.633792511E1,-6.432124329E0,1.974745839E1
5.970059833E0,6.674620056E0,-1.655811722E1,-5.361101532E0,1.864036503E1
5.980038833E0,3.414699097E0,-1.637115601E1,-4.257296906E0,1.725686808E1
5.990016833E0,1.639091492E-1,-1.588556580E1,-3.328628082E0,1.623138416E1
5.999995833E0,-2.087109833E0,-1.440993439E1,-2.361040192E0,1.475048295E1
6.009974833E0,-3.132086792E0,-1.228555206E1,-1.897903290E0,1.281978136E1
6.019952833E0,-3.159479828E0,-1.026041336E1,-1.473685455E0,1.083651900E1
6.029931833E0,-2.675985260E0,-8.133186951E0,-6.607260132E-1,8.587559953E0
6.039909833E0,-1.908830566E0,-5.375321960E0,1.277443542E0,5.845475371E0
6.049888833E0,-1.033001862E0,-2.671494598E0,2.158211975E0,3.586342868E0
6.059866833E0,-1.272354126E-1,-2.258802795E-1,1.924697571E0,1.942079167E0
6.069845833E0,5.348377991E-1,1.974693604E0,5.170248413E-1,2.110161365E0
6.079824833E0,8.220904541E-1,3.431613922E0,-1.106049957E0,3.697993149E0
6.089802833E0,6.578819275E-1,4.115990753E0,-1.102457428E0,4.311565944E0
6.099781833E0,2.239343262E-1,4.093537445E0,1.359173584E-1,4.101910399E0
6.109759833E0,-3.068618774E-2,3.695814514E0,7.961943054E-1,3.780729022E0
6.119738833E0,-2.080673218E-2,3.482358398E0,3.592529297E-1,3.500902113E0
6.129716833E0,7.020401001E-2,3.267106018E0,-5.319937134E-1,3.310880192E0
6.139695833E0,4.113446045E-1,2.717598724E0,-1.151555328E0,2.980038068E0
6.149673833E0,9.162446594E-1,1.652114410E0,-1.355730743E0,2.325293992E0
6.159652833E0,1.327589264E0,2.092648315E-1,-1.589843903E0,2.081799380E0
6.169631833E0,1.477427673E0,-1.443747711E0,-1.814676361E0,2.749590929E0
6.179609833E0,1.245110779E0,-2.574196930E0,-1.882185974E0,3.423363073E0
6.189588833E0,7.098239136E-1,-3.139421539E0,-1.724713440E0,3.651637173E0
6.199566833E0,-6.885681152E-3,-3.399580536E0,-1.389410706E0,3.672554607E0
6.209545833E0,-7.201524353E-1,-3.285817108E0,-7.664062500E-1,3.450013353E0
6.219523833E0,-1.358275452E0,-2.871179352E0,-1.178050232E-1,3.178436895E0
6.229502833E0,-1.794318695E0,-2.079475708E0,2.956352234E-1,2.762462486E0
6.239481833E0,-1.978435822E0,-1.080004120E0,4.854405212E-1,2.305703732E0
6.249459833E0,-1.768572235E0,-2.659968567E-1,4.478686523E-1,1.843688805E0
6.259438833E0,-1.375190277E0,4.227209473E-1,1.597178650E-1,1.447532761E0
6.269416833E0,-9.551637268E-1,7.209008789E-1,-4.161346436E-1,1.266966402E0
6.279395833E0,-5.412744141E-1,7.918533325E-1,-9.809101868E-1,1.371930933E0
6.289373833E0,-2.709365845E-2,6.712042236E-1,-1.559906158E0,1.698398186E0
6.299352833E0,5.848338318E-1,5.200186157E-1,-2.044747925E0,2.189393534E0
6.309330833E0,1.024918671E0,1.516346741E-1,-2.130220184E0,2.368816031E0
6.319309583E0,1.262025604E0,-7.155120850E-1,-1.012344818E0,1.769041605E0
6.329288583E0,1.420246582E0,-1.696122894E0,1.130149841E-1,2.215108488E0
6.339266583E0,1.706002350E0,-3.285068665E0,-5.519023132E-1,3.742554784E0
6.349245583E0,2.272274780E0,-6.499334564E0,-5.239554291E0,8.652023556E0
6.359223583E0,2.978955231E0,-1.123877884E1,-1.084943848E1,1.590266139E1
6.369202583E0,4.378844147E0,-1.739936783E1,-1.580772766E1,2.391226737E1
6.379180583E0,6.383176117E0,-2.631976776E1,-1.344025085E1,3.023434232E1
6.389159583E0,5.311404877E0,-3.146471878E1,3.152444458E0,3.206520631E1
6.399138583E0,1.791773987E-1,-2.967623795E1,6.385421448E0,3.035596828E1
6.409116583E0,-3.612437897E0,-2.423086166E1,-5.344935150E0,2.507494160E1
6.419095583E0,-2.639610901E0,-1.922616898E1,-1.195623688E1,2.279396235E1
6.429073583E0,-1.962568817E0,-1.446861237E1,-8.729546814E0,1.701168445E1
6.439052583E0,-2.455793152E0,-1.218570969E1,-6.203399963E0,1.389260997E1
6.449030583E0,-3.359613647E0,-1.295825317E1,-7.143744507E0,1.517354325E1
6.459009583E0,-3.986809387E0,-1.735685623E1,-1.305884399E1,2.208367075E1
6.468987583E0,-2.764451294E0,-2.357402756E1,-1.385893021E1,2.748539453E1
6.478966583E0,-1.359472961E0,-2.794314194E1,-7.785310364E0,2.903925628E1
6.488945583E0,-3.031196594E-1,-2.894336197E1,-5.782175903E0,2.951683658E1
6.498923583E0,4.701722717E-1,-2.907613586E1,-8.712482300E0,3.035704344E1
6.508902583E0,1.017733612E0,-2.992561935E1,-1.133592682E1,3.201689729E1
6.518880583E0,1.973346405E0,-2.930441116E1,-1.051638107E1,3.119674471E1
6.528859583E0,3.852987671E0,-2.685864716E1,-7.520660706E0,2.815657611E1
6.538837583E0,5.773493958E0,-2.349648880E1,-6.770869904E0,2.512494572E1
6.548816583E0,6.665938110E0,-2.090283234E1,-7.478598175E0,2.317957207E1
6.558795583E0,6.329437866E0,-1.887514893E1,-7.256609802E0,2.118941756E1
6.568773583E0,5.805227966E0,-1.572405167E1,-5.866151276E0,1.775832772E1
6.578752583E0,5.230423279E0,-1.222642502E1,-4.092489624E0,1.391370791E1
6.588730583E0,4.159999237E0,-9.777218170E0,-2.658321991E0,1.095291124E1
6.598709583E0,2.764900360E0,-8.274942169E0,-1.101708984E0,8.793924300E0
6.608687583E0,9.689350891E-1,-7.366331635E0,-4.730163574E-1,7.444825144E0
6.618666583E0,-6.307882690E-1,-6.622229004E0,1.689985657E-1,6.654349806E0
6.628644583E0,-1.818568268E0,-5.390739899E0,6.506968689E-1,5.726314139E0
6.638623583E0,-2.379152527E0,-3.367996216E0,1.516047363E0,4.393422910E0
6.648602583E0,-2.495760040E0,-1.415007477E0,1.307830353E0,3.153011984E0
6.658580583E0,-2.222578125E0,2.634521484E-1,7.080276489E-1,2.347458990E0
6.668559583E0,-1.525627441E0,1.729054413E0,6.685098267E-1,2.400848525E0
6.678537583E0,-7.155120850E-1,2.712359619E0,8.342152405E-1,2.926562372E0
6.688516583E0,1.639091492E-1,3.075055389E0,1.118773499E0,3.276352545E0
6.698494583E0,8.225395203E-1,2.841990051E0,1.360969849E0,3.256642081E0
6.708473583E0,1.147064667E0,2.474653931E0,8.018824768E-1,2.843006320E0
6.718452583E0,1.335822144E0,2.133363647E0,-1.701960754E-1,2.522821428E0
6.728430583E0,1.466650085E0,1.836381226E0,-1.341959381E0,2.706328409E0
6.738409583E0,1.719324646E0,1.491797791E0,-2.483186188E0,3.368642387E0
6.748387583E0,2.147584076E0,4.064048767E-1,-2.974614258E0,3.691288700E0
6.758366583E0,2.370620270E0,-8.979826355E-1,-2.177072754E0,3.341535433E0
6.768344583E0,1.957928467E0,-1.540746002E0,-7.575746155E-1,2.604093205E0
6.778323583E0,1.109792175E0,-1.569037170E0,4.414320374E-1,1.971897198E0
6.788301583E0,-2.993774414E-4,-1.066232758E0,1.046324158E0,1.493869682E0
6.798280583E0,-9.743238831E-1,-6.508465576E-1,1.176553345E0,1.660477655E0
6.808258583E0,-1.501677246E0,-3.710783386E-1,1.353635101E0,2.055495481E0
6.818237583E0,-1.504970398E0,-2.619552612E-1,1.616488495E0,2.224093413E0
6.828216583E0,-1.003064117E0,-2.833607483E-1,1.639091492E0,1.942434518E0
6.838194583E0,-4.129911804E-1,-3.302133179E-1,7.511380005E-1,9.185917734E-1
6.848173583E0,-1.067280579E-1,-3.505709839E-1,-7.337741089E-1,8.201922555E-1
6.858151583E0,-1.844165039E-1,-4.080514526E-1,-2.154320068E0,2.200365968E0
6.868130583E0,-5.411247253E-1,-4.897814941E-1,-3.045716400E0,3.131946722E0
6.878108583E0,-1.030606842E0,-4.914280701E-1,-3.166215820E0,3.365794799E0
6.888087583E0,-1.467099152E0,-4.164340210E-1,-2.626587982E0,3.037229271E0
6.898065583E0,-1.682052155E0,-5.650749207E-1,-2.172582092E0,2.805124251E0
6.908044583E0,-1.578766937E0,-1.157842255E0,-1.583257599E0,2.517897606E0
6.918023583E0,-1.214723969E0,-2.147733765E0,-4.779560852E-1,2.513315870E0
6.928001583E0,-7.285350037E-1,-3.402723999E0,3.733236694E-1,3.499809199E0
6.937980583E0,-6.975494385E-2,-4.687502289E0,3.010240173E-1,4.697675906E0
6.947958583E0,9.610015869E-1,-6.823410645E0,-1.526525574E0,7.057813911E0
6.957937583E0,2.469564514E0,-1.007390121E1,-8.091573486E0,1.315506731E1
6.967915583E0,5.261558533E0,-1.570578964E1,-1.801309158E1,2.447094798E1
6.977894583E0,7.233258362E0,-2.332404739E1,-1.418450317E1,2.824059744E1
6.987872583E0,5.751040649E0,-3.019431061E1,-4.034111023E0,3.100072440E1
6.997851583E0,3.011437683E0,-3.332100861E1,4.510121155E-1,3.345985331E1
7.007830583E0,2.374961243E0,-2.981425095E1,-4.247118073E0,3.020874066E1
7.017808583E0,3.228935394E0,-2.308514420E1,-7.679779816E0,2.454239035E1
7.027787583E0,2.363135834E0,-1.655751846E1,-4.190386047E0,1.724224938E1
7.037765583E0,1.665436707E0,-1.271845184E1,-1.564845886E0,1.292212983E1
7.047744583E0,9.342073059E-1,-1.037238052E1,-1.642833710E0,1.054314581E1
7.057722583E0,-2.062710571E-1,-8.472531281E0,-4.250860291E0,9.481357880E0
7.067701583E0,-1.210233307E0,-7.761360168E0,-6.234535217E0,1.002859939E1
7.077679583E0,-2.717449036E0,-9.937534790E0,-7.403005371E0,1.268635548E1
7.087658583E0,-3.897744598E0,-1.754711060E1,-1.169922134E1,2.144680124E1
7.097636583E0,-4.212240601E0,-2.990975235E1,-1.325149338E1,3.298391022E1
7.107615583E0,-4.117337952E0,-3.730003418E1,-7.620203705E0,3.829246043E1
7.117594583E0,-2.346370697E0,-3.783801544E1,-3.634292450E0,3.808449750E1
7.127572583E0,2.025288391E-1,-3.611928955E1,-7.927215271E0,3.697951916E1
7.137551583E0,3.054248657E0,-3.157758408E1,-9.821526031E0,3.321045957E1
7.147529583E0,5.663323059E0,-2.511028290E1,-6.049969025E0,2.644242161E1
7.157508583E0,7.810907135E0,-2.018462585E1,-4.639302521E0,2.213487111E1
7.167486583E0,8.735833740E0,-1.744547195E1,-4.962630157E0,2.013174063E1
7.177465583E0,8.736133118E0,-1.555684937E1,-4.626578979E0,1.843205949E1
7.187443583E0,8.822952576E0,-1.371897125E1,-3.785478058E0,1.674468598E1
7.197422583E0,8.584348755E0,-1.146196472E1,-2.950664062E0,1.462101560E1
7.207401583E0,7.880362701E0,-9.097032623E0,-1.448537750E0,1.212247419E1
7.217379583E0,6.763385468E0,-6.954837341E0,2.290237427E-1,9.703895986E0
7.227358583E0,4.669240265E0,-5.149890747E0,1.817221069E0,7.185086762E0
7.237336583E0,2.253114624E0,-4.058659973E0,2.028581543E0,5.066003293E0
7.247315583E0,1.454974365E-1,-3.447331238E0,-1.210981750E-1,3.452524719E0
7.257293583E0,-1.514700165E0,-2.258054352E0,-1.881287842E0,3.306413463E0
7.267272583E0,-2.954256592E0,-3.963757324E-1,-1.495240631E0,3.334739911E0
7.277250583E0,-4.488416290E0,1.508862305E0,3.076103210E-1,4.745226060E0
7.287229583E0,-5.519921265E0,2.783761139E0,1.858984222E0,6.455592861E0
7.297207583E0,-5.504503326E0,3.078049164E0,1.909279633E0,6.589331699E0
7.307186583E0,-4.334386597E0,2.764451294E0,4.869374084E-1,5.163933207E0
7.317164583E0,-2.605332184E0,2.220033417E0,-1.100212097E0,3.595381874E0
7.327144208E0,-1.083446960E0,1.753603363E0,-2.153421936E0,2.980974355E0
7.337122208E0,1.308279419E-1,1.405427399E0,-2.922073517E0,3.245128004E0
7.347101208E0,1.228645020E0,8.857081604E-1,-3.625610504E0,3.929261897E0
7.357080208E0,2.205064545E0,-1.571731567E-1,-3.611240387E0,4.234155191E0
7.367058208E0,2.763553162E0,-1.290915527E0,-2.283501434E0,3.810258230E0
7.377037208E0,2.540367279E0,-1.980531464E0,-6.668632507E-1,3.289479805E0
7.387015208E0,1.585802307E0,-1.960922241E0,2.017803955E-1,2.529960538E0
7.396994208E0,4.911286926E-1,-1.588646393E0,4.490661621E-1,1.722400991E0
7.406972208E0,-4.390370178E-1,-1.206042023E0,5.207670593E-1,1.385095373E0
7.416951208E0,-1.137035522E0,-9.262738037E-1,5.584886169E-1,1.569312739E0
7.426929208E0,-1.433419189E0,-9.894424438E-1,6.060896301E-1,1.844188592E0
7.436908208E0,-1.343755646E0,-1.196162567E0,4.647834778E-1,1.858092518E0
7.446886208E0,-1.049317932E0,-1.144969025E0,2.091151428E-1,1.567083703E0
7.456865208E0,-7.987390137E-1,-8.804690552E-1,-6.945556641E-2,1.190812263E0
7.466843208E0,-6.384223938E-1,-7.159611511E-1,-2.020797729E-1,9.803161518E-1
7.476822208E0,-4.652325439E-1,-7.212002563E-1,-2.104623413E-1,8.836659588E-1
7.486800208E0,-2.215393066E-1,-7.694000244E-1,-2.854563904E-1,8.500243601E-1
7.496779208E0,1.062789917E-2,-8.418493652E-1,-8.075706482E-1,1.166616328E0
7.506758208E0,2.088157654E-1,-7.878117371E-1,-1.849104767E0,2.020752285E0
7.516736208E0,4.366419983E-1,-9.090596008E-1,-2.853665771E0,3.026624180E0
7.526715208E0,5.565426636E-1,-1.849404144E0,-4.347409515E0,4.757100474E0
7.536693208E0,5.704637146E-1,-3.263513489E0,-6.857240295E0,7.615621682E0
7.546672208E0,6.753955078E-1,-4.885690155E0,-6.439010010E0,8.110917167E0
7.556650208E0,9.864486694E-1,-6.236032104E0,-1.055305481E0,6.401159820E0
7.566629208E0,2.187850342E0,-8.488847351E0,5.526507568E-1,8.783657628E0
7.576607208E0,4.859195251E0,-1.211790070E1,-5.352569275E0,1.411046752E1
7.586586208E0,8.716823273E0,-1.749412079E1,-1.471874222E1,2.446770612E1
7.596564208E0,9.113199005E0,-2.184587128E1,-1.217403397E1,2.661765562E1
7.606543208E0,4.356839905E0,-2.438549011E1,-3.777993622E0,2.505808089E1
7.616521208E0,8.337661743E-2,-2.619462799E1,-1.533860321E0,2.623963061E1
7.626500208E0,-2.089055786E0,-2.432606369E1,-6.537355499E0,2.527565124E1
7.636478208E0,-3.582799530E0,-2.245061371E1,-9.574240265E0,2.466845324E1
7.646457208E0,-2.921474762E0,-2.203911942E1,-6.308631134E0,2.310966521E1
7.656435208E0,-2.163002014E0,-2.032937485E1,-4.335584106E0,2.089878822E1
7.666414208E0,-2.430795135E0,-1.746133896E1,-5.420378265E0,1.844417588E1
7.676392208E0,-1.480571136E0,-1.632969223E1,-6.998995514E0,1.782798018E1
7.686371208E0,2.525248718E-1,-1.626876892E1,-7.023544464E0,1.772192957E1
7.696350208E0,1.529669037E0,-1.774574753E1,-7.253765717E0,1.923196713E1
7.706328208E0,2.957998810E0,-2.089923981E1,-8.430019684E0,2.272868701E1
7.716307208E0,4.355941772E0,-2.443324081E1,-9.410031738E0,2.654253535E1
7.726285208E0,5.127437439E0,-2.648547318E1,-9.004674683E0,2.844037746E1
7.736264208E0,5.627996521E0,-2.756068726E1,-7.623496857E0,2.914418520E1
7.746242208E0,5.514831848E0,-2.799987396E1,-7.257807312E0,2.944625747E1
7.756221208E0,4.960085449E0,-2.715787491E1,-6.848708038E0,2.844393466E1
7.766199208E0,4.190535736E0,-2.495520538E1,-5.927224274E0,2.598951429E1
7.776178208E0,3.386707306E0,-2.257964539E1,-6.114634552E0,2.363681298E1
7.786156208E0,3.015628967E0,-2.041933777E1,-5.975723419E0,2.148843045E1
7.796135208E0,2.979254608E0,-1.798704575E1,-4.715494080E0,1.883203805E1
7.806113208E0,2.694396973E0,-1.507440262E1,-4.098776550E0,1.585236129E1
7.816092208E0,2.134411469E0,-1.195039902E1,-3.933819580E0,1.276098294E1
7.826070208E0,1.318458252E0,-9.391919403E0,-2.785108337E0,9.884498505E0
7.836049208E0,2.755769348E-1,-7.257507935E0,-8.448431396E-1,7.311711427E0
7.846027208E0,-2.498304749E-1,-5.066364441E0,5.863307190E-1,5.106294902E0
7.856006208E0,-2.324665833E-1,-2.855462036E0,4.177812195E-1,2.895210752E0
7.865984208E0,2.769241333E-1,-1.174457703E0,-1.059197388E0,1.605595521E0
7.875963208E0,6.882687378E-1,6.165678406E-1,-2.021546173E0,2.222727758E0
7.885941208E0,5.960604858E-1,2.098186798E0,-1.629361725E0,2.722589865E0
7.895920208E0,-4.340972900E-3,3.052302704E0,-3.330574036E-1,3.070423077E0
7.905898208E0,-4.632865906E-1,3.164868622E0,9.075627136E-1,3.324860589E0
7.915877208E0,-4.731660461E-1,3.085832977E0,8.931925964E-1,3.247159418E0
7.925856208E0,-1.685494995E-1,3.021317139E0,1.100212097E-1,3.028014342E0
7.935834208E0,2.128573608E-1,2.746488647E0,-5.361849976E-1,2.806421654E0
7.945813208E0,4.495152283E-1,2.104773102E0,-9.961784363E-1,2.371603936E0
7.955791208E0,6.491999817E-1,1.042881317E0,-1.167572021E0,1.694782134E0
7.965770208E0,8.174501038E-1,-2.106120300E-1,-8.957373047E-1,1.230823878E0
7.975748208E0,9.515711975E-1,-1.332978058E0,6.840774536E-2,1.639206475E0
7.985727208E0,8.394543457E-1,-1.851948853E0,1.277443542E0,2.401303845E0
7.995705208E0,3.839515686E-1,-1.762434998E0,2.071991272E0,2.747133735E0
8.005684208E0,-3.622467041E-1,-1.317260742E0,2.136956177E0,2.536332044E0
8.015662208E0,-1.122366028E0,-9.056167603E-1,1.707948303E0,2.235382433E0
8.025641208E0,-1.645378418E0,-6.730004883E-1,1.531465302E0,2.346398467E0
8.035619208E0,-1.816622314E0,-4.230203247E-1,1.337019653E0,2.294925790E0
8.045598208E0,-1.654210052E0,-2.848576355E-1,5.545967102E-1,1.767804367E0
8.055576208E0,-1.102008362E0,-3.926335144E-1,-4.806504822E-1,1.264756258E0
8.065555208E0,-3.098556519E-1,-6.409671021E-1,-1.378782806E0,1.551738180E0
8.075533208E0,3.986210632E-1,-7.511380005E-1,-2.024090881E0,2.195461442E0
8.085512208E0,9.351054382E-1,-8.842112732E-1,-2.377056885E0,2.703081795E0
8.095490208E0,1.225351868E0,-1.088686066E0,-2.570454712E0,3.048600002E0
8.105469208E0,1.237027588E0,-1.325044556E0,-2.771187286E0,3.311413490E0
8.115447208E0,1.030457153E0,-1.570534058E0,-2.838996277E0,3.404162016E0
8.125426208E0,7.195536804E-1,-1.734892273E0,-2.825823669E0,3.393064707E0
8.135404208E0,3.626957703E-1,-1.966610413E0,-2.867437134E0,3.495897661E0
8.145383208E0,1.621128845E-1,-2.440225525E0,-2.970572662E0,3.847763395E0
8.155361208E0,-3.083587646E-2,-2.944377136E0,-3.581751709E0,4.636728683E0
8.165340208E0,-2.140548706E-2,-3.979774017E0,-3.829935608E0,5.523356424E0
8.175318208E0,3.347039795E-1,-5.403613129E0,-4.902604980E0,7.303875491E0
8.185297208E0,4.900808716E-1,-6.592291260E0,-3.492836609E0,7.476522647E0
8.195275208E0,1.344055023E0,-7.926466827E0,2.350112915E-2,8.039646297E0
8.205254208E0,4.676425323E0,-1.140298737E1,-8.718020782E0,1.509638901E1
8.215232208E0,9.759854279E0,-1.624975845E1,-1.713995728E1,2.555557749E1
8.225211208E0,9.934990082E0,-2.209959366E1,-9.092841339E0,2.588002765E1
8.235189208E0,3.799099731E0,-2.556937820E1,4.365521851E0,2.621610271E1
8.245168208E0,-1.944456482E0,-2.481180359E1,7.157366180E0,2.589660980E1
8.255146208E0,-3.525019684E0,-2.507615387E1,-7.874674530E0,2.651885660E1
8.265125208E0,-2.794389038E0,-2.414733536E1,-1.435948929E1,2.823291249E1
8.275103208E0,-3.206033020E0,-2.263173706E1,-6.844067688E0,2.386033178E1
8.285082208E0,-2.867736511E0,-1.953647369E1,4.468208313E-1,1.975088266E1
8.295060208E0,-1.093775482E0,-1.569097046E1,-9.379495239E-1,1.575698728E1
8.305039208E0,1.002165985E0,-1.616428619E1,-8.003107452E0,1.806483362E1
8.315017208E0,3.235970764E0,-2.261362473E1,-1.316123108E1,2.636409554E1
8.324996000E0,4.080514526E0,-2.707225296E1,-1.114896561E1,2.956107091E1
8.334974000E0,3.063080292E0,-2.525278656E1,-6.435267792E0,2.623925230E1
8.344953000E0,3.260819092E0,-2.198433334E1,-6.298302612E0,2.310005345E1
8.354932000E0,4.565056915E0,-2.092259125E1,-8.956175537E0,2.321223060E1
8.364910000E0,5.634283447E0,-2.126627655E1,-1.023197250E1,2.426299507E1
8.374889000E0,5.997428284E0,-2.194331863E1,-8.984167328E0,2.445799749E1
8.384867000E0,5.367089081E0,-2.190410019E1,-7.187154236E0,2.366960997E1
8.394846000E0,4.133803711E0,-2.145862656E1,-6.003715210E0,2.266286794E1
8.404824000E0,2.825374603E0,-2.067201233E1,-5.397176514E0,2.155097097E1
8.414803000E0,1.773362274E0,-1.908411438E1,-4.677622833E0,1.972887201E1
8.424781000E0,1.099613342E0,-1.679432602E1,-3.917353821E0,1.728016773E1
8.434760000E0,7.279362488E-1,-1.424542648E1,-3.122656403E0,1.460181666E1
8.444738000E0,4.254153442E-1,-1.198437836E1,-2.595153351E0,1.226952011E1
8.454717000E0,1.722917175E-1,-1.008647507E1,-2.316582642E0,1.035051781E1
8.464695000E0,-1.640588379E-1,-8.338709564E0,-1.617386627E0,8.495700795E0
8.474674000E0,-5.783972168E-1,-6.639143829E0,-9.050180054E-1,6.725461450E0
8.484652000E0,-8.155041504E-1,-4.697232056E0,-4.311035156E-1,4.786949576E0
8.494631000E0,-8.336164856E-1,-3.072959747E0,-3.784130859E-1,3.206430183E0
8.504609000E0,-5.436694336E-1,-1.564696198E0,-1.975891113E-1,1.668200258E0
8.514588000E0,-4.625381470E-2,2.823129272E-1,4.849914551E-2,2.901588727E-1
8.524566000E0,4.978646851E-1,2.080972595E0,-1.697470093E-1,2.146422660E0
8.534545000E0,8.375083923E-1,3.191363525E0,-5.529501343E-1,3.345440974E0
8.544523000E0,9.428892517E-1,3.414549408E0,-2.929408264E-1,3.554434150E0
8.554502000E0,9.333091736E-1,3.304079132E0,-1.721420288E-2,3.433409567E0
8.564480000E0,9.654922485E-1,3.009491730E0,-6.123765564E-1,3.219350991E0
8.574458000E0,1.034349060E0,2.375559998E0,-1.469943237E0,2.978908592E0
8.584437000E0,1.132844238E0,1.362466736E0,-1.982627106E0,2.659034019E0
8.594415000E0,1.137484589E0,3.098556519E-2,-2.122586060E0,2.408361035E0
8.604394000E0,9.202862549E-1,-1.219663696E0,-2.005529480E0,2.521240730E0
8.614372000E0,5.406756592E-1,-2.090103607E0,-1.649120636E0,2.716700596E0
8.624351000E0,1.324745178E-1,-2.593357086E0,-9.427395630E-1,2.762572779E0
8.634329000E0,-2.618055725E-1,-2.861000519E0,-2.041754150E-1,2.880200293E0
8.644308000E0,-5.794450378E-1,-2.746788025E0,2.508782959E-1,2.818428804E0
8.654286000E0,-7.455995178E-1,-2.350861359E0,2.703378296E-1,2.481038152E0
8.664265000E0,-7.815248108E-1,-1.946252747E0,7.484436035E-4,2.097303350E0
8.674243000E0,-7.652087402E-1,-1.437460785E0,-1.666035461E-1,1.636946751E0
8.684222000E0,-7.529342651E-1,-8.912466431E-1,-2.888992310E-2,1.167075496E0
8.694200000E0,-7.593708801E-1,-3.516188049E-1,2.674937439E-1,8.785401645E-1
8.704179000E0,-7.020401001E-1,1.225950623E-1,4.605921936E-1,8.485487730E-1
8.714157000E0,-5.834866333E-1,4.764591980E-1,3.658392334E-1,8.374415581E-1
8.724136000E0,-4.972659302E-1,6.730004883E-1,-7.993377686E-2,8.405905491E-1
8.734114000E0,-3.707789612E-1,6.698570251E-1,-9.280700684E-1,1.203120744E0
8.744093000E0,-1.487905884E-1,5.409750366E-1,-2.114652557E0,2.187818107E0
8.754071000E0,1.239422607E-1,2.017803955E-1,-3.562890930E0,3.570751853E0
8.764050000E0,4.209246826E-1,-6.297404480E-1,-5.117857361E0,5.173607502E0
8.774028000E0,5.822891235E-1,-1.855840759E0,-6.183341675E0,6.482045959E0
8.784007000E0,7.126679993E-1,-3.040926361E0,-4.887486420E0,5.800228643E0
8.793985000E0,1.159189453E0,-4.600682831E0,-1.637594604E0,5.019135263E0
8.803964000E0,2.065255280E0,-7.166946259E0,2.459385681E-1,7.462632499E0
8.813942000E0,3.546125793E0,-1.032462982E1,-1.556912384E0,1.102710140E1
8.823921000E0,5.522765350E0,-1.491827728E1,-6.735842743E0,1.727505461E1
8.833899000E0,7.158264313E0,-2.285222855E1,-1.136346954E1,2.650648105E1
8.843878000E0,5.387297058E0,-3.257855255E1,-1.227941483E1,3.523022970E1
8.853856000E0,1.536704407E0,-3.864349045E1,-1.110630432E1,4.023718194E1
8.863835000E0,-1.243164825E0,-3.165632034E1,-7.517666931E0,3.256045750E1
8.873813000E0,-1.669478302E0,-2.073278595E1,-6.448590088E0,2.177659030E1
8.883792000E0,-1.377136230E-2,-1.587823105E1,-3.554957428E0,1.627132856E1
8.893770000E0,7.171586609E-1,-1.286364990E1,3.787124634E-2,1.288368113E1
8.903749000E0,3.426374817E-1,-9.858199768E0,4.965174866E-1,9.876640761E0
8.913727000E0,-3.010240173E-1,-7.617958374E0,-9.907896423E-1,7.688014657E0
8.923706000E0,2.047741699E-1,-7.668253784E0,-1.941762085E0,7.912931729E0
8.933684000E0,2.210902405E0,-1.233704498E1,-4.257147217E0,1.323684520E1
8.943663000E0,4.276007996E0,-2.173689789E1,-1.333442093E1,2.585698659E1
8.953641000E0,7.458988953E0,-3.547787338E1,-1.746433273E1,4.024076209E1
8.963620000E0,6.673272858E0,-3.801779160E1,-9.500443726E0,3.975101860E1
8.973598000E0,3.132685547E0,-3.533432190E1,-7.733667755E0,3.630616531E1
8.983577000E0,7.836204529E-1,-3.209820145E1,-1.063238983E1,3.382242319E1
8.993555000E0,1.153351593E0,-2.585348740E1,-6.805148621E0,2.675898126E1
9.003534000E0,2.343376923E0,-1.975801300E1,-5.223986664E0,2.057086604E1
9.013512000E0,3.495680695E0,-1.609977036E1,-5.970634003E0,1.752343743E1
9.023491000E0,4.219725037E0,-1.494162872E1,-5.988596649E0,1.664096266E1
9.033469000E0,4.728816376E0,-1.506587036E1,-4.696333923E0,1.647415268E1
9.043448000E0,4.976700897E0,-1.457863358E1,-3.128194885E0,1.571908750E1
9.053426000E0,4.567901001E0,-1.308967987E1,-2.451152802E0,1.407883478E1
9.063405000E0,3.405568085E0,-1.124072479E1,-2.003433838E0,1.191492908E1
9.073383000E0,1.937720490E0,-9.460476837E0,-1.373394012E0,9.754055249E0
9.083362000E0,3.017724609E-1,-7.624544678E0,-7.186555481E-1,7.664281699E0
9.093340000E0,-1.120120697E0,-5.807473297E0,-3.591032410E-1,5.925400544E0
9.103319000E0,-2.039209442E0,-3.979774017E0,-5.813909912E-1,4.509433652E0
9.113297000E0,-2.518063660E0,-2.334096222E0,-1.219214630E0,3.643505741E0
9.123275000E0,-2.561174011E0,-9.437873840E-1,-1.404529266E0,3.069698585E0
9.133254000E0,-2.438578949E0,5.424719238E-1,-1.104253693E0,2.731358507E0
9.143232000E0,-2.291884003E0,1.707948303E0,-4.436773682E-1,2.892519541E0
9.153211000E0,-1.841620331E0,2.167492676E0,4.740641785E-1,2.883457436E0
9.163189000E0,-1.047222290E0,2.173480225E0,1.125958557E0,2.662418728E0
9.173168000E0,-2.990780640E-1,2.137255554E0,6.192622375E-1,2.245171421E0
9.183146000E0,2.755769348E-1,2.465522919E0,-5.589376831E-1,2.543060605E0
9.193125000E0,8.884025574E-1,2.724634094E0,-1.905687103E0,3.441588788E0
9.203103000E0,1.684896240E0,2.603386230E0,-3.209026794E0,4.462549515E0
9.213082000E0,2.601290588E0,1.950593719E0,-4.101021881E0,5.233536954E0
9.223060000E0,3.148552551E0,1.839674377E-1,-3.715872803E0,4.873903761E0
9.233039000E0,2.987038422E0,-1.700164490E0,-2.384691010E0,4.183265356E0
9.243017000E0,2.437531128E0,-2.581232300E0,-1.115180969E0,3.721282948E0
9.252996000E0,1.711241455E0,-2.773133240E0,7.020401001E-2,3.259377837E0
9.262974000E0,8.256829834E-1,-2.465672607E0,1.044677582E0,2.802257134E0
9.272953000E0,-2.805166626E-1,-1.857936401E0,1.735341339E0,2.557738617E0
9.282931000E0,-1.486558685E0,-1.169368286E0,2.282902679E0,2.964611873E0
9.292910000E0,-2.459834747E0,-6.218069458E-1,2.426454163E0,3.510713697E0
9.302888000E0,-2.938389587E0,-4.053570557E-1,2.308050385E0,3.758396505E0
9.312867000E0,-3.011138306E0,-2.532733154E-1,1.778751068E0,3.506430754E0
9.322844125E0,-2.806663513E0,3.487747192E-2,7.746391296E-1,2.911810828E0
9.332823125E0,-2.186054077E0,2.585124207E-1,-1.547781372E-1,2.206720955E0
9.342801125E0,-1.328487396E0,-1.945953369E-2,-4.697232056E-1,1.409218693E0
9.352780125E0,-6.860234070E-1,-4.590953064E-1,-6.071374512E-1,1.024701176E0
9.362758125E0,-3.104544067E-1,-6.957531738E-1,-7.936495972E-1,1.100151853E0
9.372736125E0,6.586303711E-3,-8.596623230E-1,-1.102307739E0,1.397907379E0
9.382715125E0,3.752696228E-1,-1.200204163E0,-1.534159698E0,1.983674193E0
9.392693125E0,8.719367981E-1,-2.074685669E0,-2.380948792E0,3.276203833E0
9.402672125E0,1.384171600E0,-3.579057312E0,-4.838538208E0,6.175518946E0
9.412650125E0,1.974394226E0,-5.778134308E0,-7.488477631E0,9.662420290E0
9.422629125E0,2.598596191E0,-8.360713806E0,-5.065466309E0,1.011499809E1
9.432607125E0,3.916904755E0,-1.112516510E1,-4.998555450E0,1.281003505E1
9.442586125E0,7.184310150E0,-1.610710510E1,-1.245005997E1,2.158835659E1
9.452564125E0,9.607620850E0,-2.128828079E1,-1.249736160E1,2.648926810E1
9.462543125E0,6.647676086E0,-2.618280258E1,-4.759203186E0,2.742956003E1
9.472521125E0,-2.975811768E-1,-2.810929642E1,6.410718842E0,2.883259294E1
9.482500125E0,-4.280947723E0,-2.399225784E1,4.600233765E0,2.480155440E1
9.492478125E0,-4.919519806E0,-2.180889816E1,-9.531878357E0,2.430404121E1
9.502457125E0,-3.368894348E0,-2.321956467E1,-2.144754959E1,3.178828426E1
9.512435125E0,-1.325942688E0,-2.237621841E1,-1.374232269E1,2.629267403E1
9.522414125E0,-8.485853577E-1,-1.783885391E1,-2.017803955E-1,1.786016577E1
9.532392125E0,-1.102906494E0,-1.322814194E1,2.590662689E0,1.352448428E1
9.542371125E0,-1.028361511E0,-1.174936707E1,-3.580254822E0,1.232572020E1
9.552349125E0,-1.314266968E-1,-1.517394562E1,-8.946445770E0,1.761547020E1
9.562328125E0,7.771838379E-1,-1.972044113E1,-9.918224945E0,2.208780205E1
9.572306125E0,9.696835327E-1,-2.341011841E1,-9.386979675E0,2.524062831E1
9.582284125E0,1.576371918E0,-2.696941681E1,-7.924969940E0,2.815385480E1
9.592263125E0,4.051175537E0,-2.839295654E1,-6.805298309E0,2.947683988E1
9.602241125E0,6.679110718E0,-2.689591965E1,-6.400390320E0,2.844232779E1
9.612220125E0,7.549700317E0,-2.435660019E1,-6.764882355E0,2.638191769E1
9.622198125E0,6.881190491E0,-2.249731659E1,-7.028484192E0,2.455360720E1
9.632177125E0,5.631289673E0,-2.109518234E1,-6.523733826E0,2.278765553E1
9.642155125E0,4.375550995E0,-1.939606567E1,-5.923931122E0,2.074718704E1
9.652134125E0,3.318748627E0,-1.816218155E1,-5.537584534E0,1.927547077E1
9.662112125E0,2.509531403E0,-1.692814774E1,-4.952301636E0,1.781530873E1
9.672091125E0,1.751208344E0,-1.493399460E1,-4.326153717E0,1.564629449E1
9.682069125E0,7.548802185E-1,-1.265378632E1,-3.688180389E0,1.320192512E1
9.692048125E0,-2.740800476E-1,-1.083162552E1,-3.037333832E0,1.125276091E1
9.702026125E0,-1.053060150E0,-9.068741455E0,-1.970053253E0,9.339813546E0
9.712005125E0,-1.708846436E0,-7.055128784E0,-5.227130127E-1,7.277927397E0
9.721983125E0,-2.290686493E0,-4.971461792E0,7.753875732E-2,5.474366559E0
9.731962125E0,-2.593357086E0,-3.078797607E0,-4.019142151E-1,4.045495114E0
9.741940125E0,-2.542911987E0,-1.499731293E0,-1.143322449E0,3.165877690E0
9.751918125E0,-2.334994354E0,-1.249900818E-1,-1.586999817E0,2.826020094E0
9.761897125E0,-2.046544189E0,9.937834167E-1,-1.304237823E0,2.622400598E0
9.771875125E0,-1.676214294E0,1.835183716E0,1.700463867E-1,2.491286697E0
9.781854125E0,-9.783654785E-1,2.239492950E0,1.879341888E0,3.082929389E0
9.791832125E0,-1.429527283E-1,2.326162720E0,2.161804504E0,3.178815376E0
9.801811125E0,5.734574890E-1,2.451152802E0,9.681866455E-1,2.697107512E0
9.811789125E0,1.213676147E0,2.627785492E0,-7.312294006E-1,2.985458561E0
9.821768125E0,1.957479401E0,2.586172028E0,-2.224075012E0,3.932749804E0
9.831746125E0,2.782264252E0,2.257156219E0,-3.234473877E0,4.826755621E0
9.841725125E0,3.450624390E0,1.277293854E0,-3.248843994E0,4.908490151E0
9.851703125E0,3.563339996E0,-4.514611816E-1,-1.842817841E0,4.036977424E0
9.861682125E0,3.170706482E0,-1.437760162E0,-2.092648315E-1,3.487739332E0
9.871660125E0,2.545007629E0,-1.909728699E0,7.565267944E-1,3.270544347E0
9.881639125E0,1.704954529E0,-2.005978546E0,1.233285370E0,2.907200144E0
9.891617125E0,6.978488159E-1,-1.916015625E0,1.448687439E0,2.501360458E0
9.901595125E0,-3.983216858E-1,-1.953886871E0,1.438358917E0,2.458700967E0
9.911574125E0,-1.407822418E0,-2.100132751E0,1.180594940E0,2.790398887E0
9.921552125E0,-2.150877228E0,-1.996697845E0,7.946974182E-1,3.040496525E0
9.931531125E0,-2.504591675E0,-1.613045654E0,4.550537109E-1,3.013630638E0
9.941509125E0,-2.330803070E0,-1.084494781E0,2.963836670E-2,2.570924020E0
9.951488125E0,-1.795067139E0,-4.818479919E-1,-6.394702148E-1,1.965544626E0
9.961466125E0,-1.203347626E0,-7.170089722E-2,-1.274898834E0,1.754580738E0
9.971445125E0,-7.313790894E-1,2.131567383E-1,-1.593885498E0,1.766584883E0
9.981423125E0,-3.421884155E-1,3.812571716E-1,-1.802551575E0,1.873937598E0
9.991402125E0,2.888992310E-2,2.917433167E-1,-2.104024658E0,2.124351325E0
1.000138013E1,3.326083374E-1,-2.290237427E-2,-2.555186462E0,2.576845103E0
1.001135913E1,5.046006775E-1,-5.779481506E-1,-3.122806091E0,3.215674703E0
1.002133712E1,4.766088867E-1,-1.420545959E0,-4.190236359E0,4.450077257E0
1.003131513E1,3.149450684E-1,-2.292482758E0,-5.206173706E0,5.697272352E0
1.004129413E1,2.701881409E-1,-3.700005798E0,-3.770509186E0,5.289592050E0
1.005127212E1,7.033872986E-1,-6.302044830E0,-8.030799866E-1,6.391827610E0
1.006125113E1,1.988165588E0,-1.038974442E1,-9.704319763E-1,1.062267997E1
1.007122913E1,4.479734344E0,-1.607507172E1,-1.190743835E1,2.050031801E1
1.008120812E1,7.599247284E0,-2.616004990E1,-2.758418839E1,3.876834042E1
1.009118613E1,6.219566345E0,-3.266671921E1,-1.351524490E1,3.589511658E1
1.010116513E1,3.419040070E0,-3.024355820E1,4.745431824E0,3.080392460E1
1.011114312E1,1.128652954E-1,-2.141566589E1,5.379513245E0,2.208127367E1
1.012112213E1,-7.111711121E-1,-1.476364883E1,-1.793869629E0,1.488922629E1
1.013110013E1,-2.230361938E-1,-1.221340210E1,-8.219557343E0,1.472338476E1
1.014107912E1,4.605921936E-1,-1.261756165E1,-6.603368225E0,1.424849041E1
1.015105713E1,1.512903900E0,-1.383677628E1,-5.435197449E-1,1.392984816E1
1.016103513E1,1.940714264E0,-1.381267639E1,-6.182144165E-2,1.394848461E1
1.017101412E1,1.052461395E0,-1.553259979E1,-4.159849548E0,1.611439355E1
1.018099213E1,-5.830375671E-1,-2.121298737E1,-8.678952026E0,2.292716673E1
1.019097113E1,-1.240021362E0,-2.835149277E1,-1.307875259E1,3.124737692E1
1.020094912E1,-2.020947418E0,-3.221555740E1,-1.300525543E1,3.480033098E1
1.021092813E1,-2.591710510E0,-3.079096985E1,-8.918603668E0,3.216119213E1
1.022090613E1,-3.116519165E-1,-2.913436478E1,-9.519005127E0,3.065158718E1
1.023088512E1,3.716621246E0,-2.632096527E1,-9.444011078E0,2.820985345E1
1.024086313E1,7.197931824E0,-2.162148788E1,-5.723348236E0,2.349586508E1
1.025084213E1,9.153165894E0,-1.871408386E1,-4.530778198E0,2.131959971E1
1.026082012E1,9.016649780E0,-1.799692520E1,-5.533542938E0,2.087604818E1
1.027079913E1,8.054750061E0,-1.817176163E1,-5.853577423E0,2.072091426E1
1.028077713E1,7.117848358E0,-1.818134171E1,-4.896018677E0,2.012947963E1
1.029075613E1,5.800886993E0,-1.796504150E1,-3.973786469E0,1.929207052E1
1.030073413E1,3.934717712E0,-1.758857437E1,-3.160078583E0,1.829825261E1
1.031071213E1,1.410516815E0,-1.646950150E1,-2.240540771E0,1.668094902E1
1.032069113E1,-1.186881866E0,-1.536749313E1,-2.032623138E0,1.554670674E1
1.033067000E1,-3.063978424E0,-1.349099533E1,-1.716181183E0,1.394059528E1
1.034064900E1,-4.286336517E0,-1.084749252E1,-1.362017670E0,1.174290709E1
1.035062700E1,-4.678820343E0,-7.708969116E0,-1.587748260E0,9.156446318E0
1.036060600E1,-4.238735504E0,-4.365521851E0,-1.772164764E0,6.337604252E0
1.037058400E1,-3.167263641E0,-1.804647217E0,-1.672472076E0,4.010669944E0
1.038056300E1,-1.552721100E0,-5.138813782E-1,-1.472338257E0,2.200635551E0
1.039054100E1,1.901046753E-1,3.101550293E-1,-1.487905884E0,1.531730998E0
1.040052000E1,1.403032379E0,1.506018219E0,-1.680106201E0,2.656943278E0
1.041049800E1,2.009870453E0,2.761457520E0,-1.973196716E0,3.944455875E0
1.042047600E1,2.312990112E0,3.671864319E0,-2.456242218E0,4.986545565E0
1.043045500E1,2.705473938E0,4.256548462E0,-2.717898102E0,5.729290020E0
1.044043300E1,2.836002502E0,4.566703491E0,-2.746788025E0,6.036765311E0
1.045041200E1,2.381098480E0,4.233795776E0,-1.533261566E0,5.093677226E0
1.046039000E1,1.642384644E0,2.611469421E0,8.164022827E-1,3.191192966E0
1.047036900E1,7.050338745E-1,5.364843750E-1,3.025807800E0,3.152840163E0
1.048034700E1,-3.869453430E-1,-7.223977661E-1,4.127516785E0,4.208085080E0
1.049032600E1,-1.158441010E0,-1.257235565E0,3.828289032E0,4.192663086E0
1.050030400E1,-1.485510864E0,-1.534908142E0,2.768941956E0,3.497102384E0
1.051028300E1,-1.460961914E0,-2.398911438E0,1.499132538E0,3.183800271E0
1.052026100E1,-1.038390656E0,-3.277733917E0,4.590953064E-1,3.468798536E0
1.053023900E1,-4.207749939E-1,-3.521277466E0,-1.755848694E-1,3.550672701E0
1.054021800E1,1.222956848E-1,-3.113076324E0,-5.737568665E-1,3.167869533E0
1.055019600E1,5.171745300E-1,-2.357447662E0,-8.174501038E-1,2.548186345E0
1.056017500E1,8.213420105E-1,-1.435215454E0,-8.187973022E-1,1.845230370E0
1.057015300E1,9.407936096E-1,-3.996688843E-1,-5.996530151E-1,1.185078720E0
1.058013200E1,8.439450073E-1,4.655319214E-1,-4.475692749E-1,1.062676527E0
1.059011000E1,8.541238403E-1,8.896000671E-1,-6.259982300E-1,1.383036369E0
1.060008900E1,9.916877747E-1,8.568182373E-1,-9.725276184E-1,1.631990228E0
1.061006700E1,1.000968475E0,7.075785828E-1,-1.300794983E0,1.787364800E0
1.062004600E1,6.744973755E-1,4.695735168E-1,-1.522783356E0,1.730408953E0
1.063002400E1,6.122268677E-2,-6.586303711E-3,-1.937570801E0,1.938548995E0
1.064000200E1,-5.801934814E-1,-6.126759338E-1,-2.603236542E0,2.736573911E0
1.064998100E1,-1.156045990E0,-1.193917236E0,-3.396137695E0,3.780956485E0
1.065995900E1,-1.568588104E0,-2.244432678E0,-4.869972839E0,5.587001176E0
1.066993800E1,-1.505718842E0,-3.908222809E0,-6.878945160E0,8.053650183E0
1.067991600E1,-1.049317932E0,-6.405479736E0,-6.689738617E0,9.321150226E0
1.068989500E1,6.179150391E-1,-1.009485764E1,-5.504503326E0,1.151466572E1
1.069987300E1,4.279001770E0,-1.577838867E1,-1.294912216E1,2.085538707E1
1.070985200E1,8.181686096E0,-2.299054092E1,-2.105192230E1,3.222868896E1
1.071983000E1,7.360643463E0,-2.868514893E1,-1.307411224E1,3.237204430E1
1.072980900E1,3.715423737E0,-2.882555695E1,1.645528107E0,2.911056285E1
1.073978700E1,-6.301895142E-2,-2.152254364E1,7.001390533E0,2.263279314E1
1.074976500E1,-1.975741425E0,-1.245245499E1,4.286635895E0,1.331699803E1
1.075974400E1,-2.444865875E0,-7.773185577E0,4.427792358E-1,8.160627220E0
1.076972200E1,-2.063758392E0,-7.649542694E0,-6.130052490E0,1.001759181E1
1.077970100E1,-1.238225098E0,-1.226354782E1,-1.328322739E1,1.812103574E1
1.078967900E1,5.870791626E-1,-1.850571716E1,-1.383483032E1,2.311295653E1
1.079965800E1,1.712738342E0,-2.334979385E1,-8.080197144E0,2.476763880E1
1.080963600E1,-3.221301270E-1,-2.788491302E1,-4.676575012E0,2.827618249E1
1.081961500E1,-1.772464142E0,-2.890608948E1,-5.989195404E0,2.957319901E1
1.082959300E1,-1.376088409E0,-2.639521088E1,-7.914491730E0,2.759057730E1
1.083957200E1,2.110610962E-1,-2.214824249E1,-8.691675568E0,2.379357931E1
1.084955000E1,2.487826538E0,-1.966026627E1,-9.724827118E0,2.207459202E1
1.085952800E1,5.278024292E0,-1.907707901E1,-9.649533691E0,2.202058093E1
1.086950700E1,7.464078369E0,-1.886571854E1,-8.515641632E0,2.200327144E1
1.087948500E1,8.377329254E0,-1.931493439E1,-8.431067505E0,2.267882790E1
1.088946400E1,7.019053802E0,-2.097168915E1,-8.257278900E0,2.360638720E1
1.089944200E1,4.350852356E0,-2.285956329E1,-7.201075287E0,2.435867475E1
1.090942100E1,1.757195892E0,-2.354543701E1,-6.248905334E0,2.442384407E1
1.091939900E1,-2.305206299E-1,-2.283860687E1,-5.623505859E0,2.352188177E1
1.092937800E1,-1.305884399E0,-2.097872452E1,-4.913831635E0,2.158605934E1
1.093935600E1,-1.451232147E0,-1.810410233E1,-3.786675568E0,1.855272238E1
1.094933500E1,-1.071172485E0,-1.538650360E1,-3.046913910E0,1.572181885E1
1.095931300E1,-6.484515381E-1,-1.321811279E1,-2.267335052E0,1.342683147E1
1.096929100E1,-3.076103210E-1,-1.108669510E1,-1.664987640E0,1.121524035E1
1.097927000E1,-6.481521606E-2,-8.494685211E0,-7.635621643E-1,8.529179622E0
1.098924800E1,2.219883728E-1,-5.983806610E0,6.316864014E-2,5.988256062E0
1.099922700E1,4.890330505E-1,-3.558250580E0,-3.038681030E-1,3.604529975E0
1.100920500E1,7.854167175E-1,-1.025966492E0,-1.128652954E0,1.715617718E0
1.101918400E1,1.352138214E0,1.024469604E0,-2.228565674E0,2.800771444E0
1.102916200E1,1.812131653E0,2.275268555E0,-2.525099030E0,3.851855817E0
1.103914100E1,1.695823517E0,3.040327606E0,-1.524130554E0,3.800313579E0
1.104911900E1,1.118174744E0,3.224444733E0,-4.131408691E-2,3.413072728E0
1.105909700E1,4.233197021E-1,3.098706207E0,1.251697083E0,3.368668181E0
1.106907600E1,-3.772155762E-2,2.653981018E0,1.836830292E0,3.227845052E0
1.107905400E1,-2.215393066E-1,1.941462708E0,1.847607880E0,2.689240039E0
1.108903300E1,-1.594184875E-1,1.204245758E0,1.347198486E0,1.813991693E0
1.109901100E1,1.237925720E-1,3.248245239E-1,6.337820435E-1,7.228521639E-1
1.110899000E1,5.438191223E-1,-5.655239868E-1,-1.785786438E-1,8.046408823E-1
1.111896800E1,9.759704590E-1,-1.312321014E0,-9.886940002E-1,1.911078389E0
1.112894700E1,1.325343933E0,-1.918111267E0,-1.376687164E0,2.707573623E0
1.113892500E1,1.528770905E0,-2.345472565E0,-9.954299927E-1,2.971407562E0
1.114890300E1,1.512155457E0,-2.551444244E0,-3.260220337E-1,2.983751368E0
1.115888200E1,1.299896851E0,-2.383792877E0,1.152603149E-2,2.715204072E0
1.116886000E1,8.684939575E-1,-1.544637909E0,3.712280273E-2,1.772446368E0
1.117883900E1,3.594026184E-1,-6.143225098E-1,-9.086105347E-2,7.175082711E-1
1.118881700E1,-5.164260864E-2,-1.152603149E-2,-2.305206299E-1,2.365154736E-1
1.119879600E1,-4.050576782E-1,2.585124207E-1,-3.936813354E-2,4.821309410E-1
1.120877400E1,-6.918612671E-1,3.365002441E-1,4.742138672E-1,9.037605983E-1
1.121875300E1,-9.651928711E-1,3.870950317E-1,5.587879944E-1,1.180543885E0
1.122873100E1,-1.161734161E0,2.951861572E-1,1.520837402E-1,1.208259324E0
1.123870900E1,-1.305135956E0,1.218466187E-1,-3.242257690E-1,1.350314338E0
1.124868800E1,-1.299896851E0,-2.192939758E-1,-7.192543030E-1,1.501715160E0
1.125866600E1,-1.104253693E0,-5.198689270E-1,-9.729766846E-1,1.560872688E0
1.126864500E1,-9.222322083E-1,-5.099894714E-1,-1.199605408E0,1.596763803E0
1.127862300E1,-8.217910767E-1,-4.287084961E-1,-1.474134521E0,1.741322525E0
1.128860200E1,-7.021897888E-1,-9.294172668E-1,-2.164648590E0,2.458168113E0
1.129858000E1,-4.543052673E-1,-2.216291199E0,-3.505709839E0,4.172330455E0
1.130855900E1,-3.805087280E-1,-3.448678436E0,-4.208797760E0,5.454553000E0
1.131853700E1,-8.601113892E-1,-4.873415680E0,-3.893403625E0,6.296710553E0
1.132851500E1,-9.095086670E-1,-8.534801788E0,-4.661456451E0,9.767252624E0
1.133849400E1,-5.313949585E-2,-1.443897400E1,-5.750142517E0,1.554190892E1
1.134847200E1,2.197430420E0,-2.310669937E1,-1.053778656E1,2.549104160E1
1.135845100E1,4.623285828E0,-3.244458115E1,-1.563468750E1,3.631072942E1
1.136842900E1,4.934338989E0,-3.316907455E1,-4.124223633E0,3.378674931E1
1.137840800E1,2.639161835E0,-2.366878052E1,5.888155518E0,2.453256452E1
1.138838600E1,8.559201050E-1,-1.467144058E1,3.983216858E0,1.522661435E1
1.139836500E1,1.199006653E-1,-9.924362183E0,-1.759141846E0,1.007977782E1
1.140834300E1,-1.878593445E-1,-8.297844543E0,-7.761659546E0,1.136366464E1
1.141832100E1,3.474275208E-1,-9.959239655E0,-8.531658325E0,1.311855000E1
1.142830000E1,1.321302338E0,-1.214005463E1,-6.734794922E0,1.394576025E1
1.143827800E1,1.366658020E0,-1.492067230E1,-8.540040894E0,1.724605794E1
1.144825700E1,3.911366272E-1,-2.129142426E1,-9.302704926E0,2.323828853E1
1.145823500E1,-5.352868652E-1,-2.835852814E1,-7.701933746E0,2.939068617E1
1.146821400E1,-1.818119202E0,-3.027828598E1,-8.583899689E0,3.152401455E1
1.147819200E1,-2.650837555E0,-2.622636200E1,-9.675130463E0,2.807947921E1
1.148817100E1,-1.205143890E0,-2.238445129E1,-8.446635132E0,2.395541017E1
1.149814900E1,4.805007935E-1,-2.024031006E1,-7.519612885E0,2.159735193E1
1.150812700E1,2.240989838E0,-1.914593582E1,-7.663014679E0,2.074393135E1
1.151810600E1,4.301155701E0,-1.888487869E1,-7.438930664E0,2.074792214E1
1.152808400E1,5.718857574E0,-1.862292343E1,-6.508615265E0,2.053973422E1
1.153806300E1,6.341562653E0,-1.823403214E1,-5.068160706E0,1.995949893E1
1.154804100E1,6.210585022E0,-1.835243591E1,-4.393064575E0,1.986661236E1
1.155802000E1,5.350922699E0,-1.848670670E1,-4.697531433E0,1.981054012E1
1.156799800E1,4.009262695E0,-1.908531189E1,-5.356161804E0,2.022403982E1
1.157797700E1,2.252815247E0,-2.018058426E1,-4.879253540E0,2.088392379E1
1.158795500E1,5.489085388E-1,-2.059028229E1,-4.045187988E0,2.099105931E1
1.159793300E1,-1.059197388E0,-1.944890579E1,-3.642076263E0,1.981531113E1
1.160791200E1,-2.346819763E0,-1.707903397E1,-3.569776611E0,1.760523414E1
1.161789000E1,-2.898273010E0,-1.392614044E1,-3.042273560E0,1.454622984E1
1.162786900E1,-2.821931763E0,-1.073357941E1,-2.188449097E0,1.131204381E1
1.163784700E1,-2.432292023E0,-7.544161835E0,-1.464255066E0,8.060673990E0
1.164782600E1,-1.841171265E0,-4.779111786E0,-1.123713226E0,5.243334102E0
1.165780400E1,-1.085542603E0,-2.230062561E0,-1.244362335E0,2.774890879E0
1.166778300E1,-2.028282166E-1,-2.951861572E-1,-1.516646118E0,1.558361191E0
1.167776100E1,7.143145752E-1,1.179696808E0,-1.928140411E0,2.370581219E0
1.168773900E1,1.458716583E0,2.508782959E0,-1.955683136E0,3.499506041E0
1.169771800E1,1.873653717E0,3.150797882E0,-1.068029022E0,3.818218372E0
1.170769600E1,1.745520172E0,3.073857880E0,3.350033569E-1,3.550728120E0
1.171767500E1,1.096619568E0,2.456691284E0,1.332678680E0,3.002322269E0
1.172765300E1,4.147874451E-1,1.502126312E0,1.265767822E0,2.007635490E0
1.173763200E1,-1.492396545E-1,1.074615326E0,8.485853577E-1,1.377377102E0
1.174761000E1,-5.903723145E-1,9.147477722E-1,5.536985779E-1,1.221427473E0
1.175758800E1,-7.062313843E-1,5.051994324E-1,-1.642085266E-1,8.837158337E-1
1.176756700E1,-3.430865479E-1,-3.381468201E-1,-1.229393463E0,1.320401431E0
1.177754500E1,1.115180969E-1,-1.182690582E0,-2.459984436E0,2.731797343E0
1.178752400E1,5.288502502E-1,-1.547631683E0,-3.695664825E0,4.041384035E0
1.179750200E1,1.161434784E0,-1.615889740E0,-3.161126404E0,3.735338077E0
1.180748100E1,1.467997284E0,-1.585502930E0,-1.465153198E0,2.610653072E0
1.181745900E1,1.201401672E0,-1.328337708E0,4.116439819E-2,1.791519342E0
1.182743700E1,4.420307922E-1,-7.114704895E-1,9.295669556E-1,1.251269836E0
1.183741600E1,-4.544549561E-1,-3.083587646E-2,1.707648926E0,1.767355372E0
1.184739400E1,-1.209634552E0,4.794529724E-1,2.001637573E0,2.387392694E0
1.185737300E1,-1.736389160E0,6.514453125E-1,1.807640991E0,2.589786529E0
1.186735100E1,-1.953737183E0,4.370910645E-1,1.771266632E0,2.673111120E0
1.187733000E1,-1.767075348E0,1.347198486E-2,1.489851837E0,2.311362212E0
1.188730800E1,-1.396745453E0,-2.540217590E-1,5.733078003E-1,1.531047598E0
1.189728600E1,-1.053359528E0,-5.141807556E-1,-3.354524231E-1,1.219211414E0
1.190726500E1,-8.575666809E-1,-6.577322388E-1,-1.253493347E0,1.655076397E0
1.191724300E1,-8.367599487E-1,-6.593788147E-1,-2.239193573E0,2.479704718E0
1.192722200E1,-1.110540619E0,-5.822891235E-1,-2.955454102E0,3.210462589E0
1.193720000E1,-1.630559235E0,-8.253836060E-1,-3.520828400E0,3.966889731E0
1.194717900E1,-2.308649139E0,-1.634002075E0,-3.903283081E0,4.820315596E0
1.195715700E1,-2.814297638E0,-3.760929108E0,-3.742517395E0,6.005938345E0
1.196713600E1,-2.613415375E0,-7.326065369E0,-1.997296600E0,8.030589481E0
1.197711400E1,-1.058748322E0,-1.134086655E1,-1.555265808E-1,1.139124184E1
1.198709200E1,1.475182343E0,-1.548095718E1,2.888992310E-1,1.555376678E1
1.199707100E1,5.357808380E0,-2.112317413E1,-3.713477783E0,2.210620984E1
1.200704900E1,1.045231430E1,-2.854533966E1,-1.705328751E1,3.485544298E1
1.201702800E1,1.235695358E1,-3.228665955E1,-2.013028885E1,4.000438995E1
1.202700600E1,6.365961914E0,-2.592488892E1,-4.534520416E0,2.707742993E1
1.203698500E1,-1.314117279E0,-1.625963791E1,6.675518188E0,1.762569920E1
1.204696300E1,-5.381010132E0,-1.040276733E1,5.992338867E0,1.315602384E1
1.205694100E1,-5.842500458E0,-9.515262909E0,1.115480347E0,1.122137854E1
1.206692000E1,-4.651427307E0,-1.041414368E1,-3.477568359E0,1.192407842E1
1.207689800E1,-3.410058746E0,-1.292592041E1,-1.017883301E1,1.680227843E1
1.208687700E1,-2.433639221E0,-1.618030289E1,-2.095267868E1,2.658457345E1
1.209685500E1,-1.430425415E0,-2.174962143E1,-2.730935989E1,3.494128342E1
1.210683400E1,-2.933898926E-1,-2.652558975E1,-5.266049194E0,2.704485651E1
1.211681200E1,1.628313904E0,-2.298605026E1,6.490951996E0,2.394039203E1
1.212679100E1,1.328188019E0,-1.665391800E1,-2.975063324E0,1.696962197E1
1.213676900E1,1.067430267E0,-1.419932236E1,-8.633596344E0,1.665230160E1
1.214674700E1,1.418001251E0,-1.531989212E1,-7.707172852E0,1.720785680E1
1.215672600E1,2.644251251E0,-1.803659271E1,-7.931107178E0,1.987996988E1
1.216670400E1,4.244423676E0,-2.048550018E1,-6.610702972E0,2.194019699E1
1.217668300E1,5.904621277E0,-2.148302582E1,-3.196752319E0,2.250786920E1
1.218666100E1,6.629863129E0,-2.166340073E1,-1.943708038E0,2.273842600E1
1.219664000E1,5.701044617E0,-2.250944138E1,-2.694097595E0,2.337594966E1
1.220661800E1,3.618575134E0,-2.278846115E1,-3.266806641E0,2.330407847E1
1.221659600E1,1.895059204E0,-2.188179657E1,-2.942131805E0,2.215988290E1
1.222657500E1,1.237776031E0,-2.101689514E1,-2.971171417E0,2.126193384E1
1.223655300E1,1.364861755E0,-2.084535187E1,-4.585713959E0,2.138738681E1
1.224653200E1,1.914069672E0,-2.082185074E1,-5.402116241E0,2.159620316E1
1.225651000E1,2.021097107E0,-2.072155930E1,-4.649930420E0,2.133283165E1
1.226648900E1,1.388811951E0,-1.964829117E1,-4.135599976E0,2.012678145E1
1.227646700E1,6.888674927E-1,-1.680734894E1,-3.440445557E0,1.716968789E1
1.228644500E1,2.516267395E-1,-1.324146423E1,-3.166964264E0,1.361724472E1
1.229642400E1,-1.721420288E-2,-9.710157623E0,-3.283272400E0,1.025023585E1
1.230640200E1,-3.174897766E-1,-6.333329773E0,-3.120560760E0,7.067514785E0
1.231638100E1,-6.792874146E-1,-3.188968506E0,-2.905458069E0,4.367223158E0
1.232635900E1,-9.406439209E-1,-5.580395508E-1,-2.315085754E0,2.560437692E0
1.233633800E1,-1.257684631E0,1.497935028E0,-6.084846497E-1,2.048373391E0
1.234631600E1,-1.573078766E0,2.765948181E0,7.108717346E-1,3.260427084E0
1.235629400E1,-1.772913208E0,3.181035004E0,1.622775421E0,3.986929270E0
1.236627300E1,-2.028880920E0,3.479963379E0,2.172582092E0,4.576747301E0
1.237625100E1,-2.088457031E0,3.460054779E0,1.282083893E0,4.239972990E0
1.238623000E1,-1.693877563E0,3.181633759E0,-7.171586609E-1,3.675096069E0
1.239620800E1,-1.105451202E0,2.884950714E0,-2.595303040E0,4.034917701E0
1.240618700E1,-5.185217285E-1,2.515668640E0,-3.848796387E0,4.627168369E0
1.241616500E1,-1.362167358E-2,1.807940369E0,-4.052971802E0,4.437951594E0
1.242614300E1,4.131408691E-1,6.294410706E-1,-2.859503632E0,2.956965076E0
1.243612200E1,8.553213501E-1,-6.324348450E-1,-6.480024719E-1,1.245574425E0
1.244610000E1,1.060694275E0,-1.253193970E0,1.492097168E0,2.218540383E0
1.245607900E1,8.825646973E-1,-1.659898224E0,2.683469696E0,3.276460311E0
1.246605700E1,6.234535217E-1,-2.144889679E0,2.739752655E0,3.534896129E0
1.247603600E1,4.941224670E-1,-2.689756622E0,2.102677460E0,3.449666679E0
1.248601400E1,5.081932068E-1,-2.529290314E0,2.163451080E0,3.366911107E0
1.249599200E1,3.971241760E-1,-1.372346191E0,2.158062286E0,2.588102493E0
1.250597100E1,3.396437073E-1,-1.941462708E-1,1.549278259E0,1.597909180E0
1.251594900E1,5.013075256E-1,2.815644836E-1,8.105644226E-1,9.937819061E-1
1.252592800E1,7.171586609E-1,5.002597046E-1,3.143463135E-3,8.744061975E-1
1.253590600E1,8.455915833E-1,6.161187744E-1,-7.705975342E-1,1.299402951E0
1.254588500E1,8.271798706E-1,4.755610657E-1,-1.252894592E0,1.574842762E0
1.255586300E1,7.369175720E-1,9.654922485E-2,-1.223705292E0,1.431720609E0
1.256584100E1,5.301974487E-1,-3.126997375E-1,-9.136999512E-1,1.101697809E0
1.257582000E1,9.385482788E-2,-6.483018494E-1,-9.867480469E-1,1.184388334E0
1.258579800E1,-4.406835938E-1,-9.280700684E-1,-1.245410156E0,1.614485224E0
1.259577700E1,-9.729766846E-1,-1.198557587E0,-1.186881866E0,1.947283360E0
1.260575500E1,-1.376537476E0,-1.757644958E0,-8.388555908E-1,2.384921366E0
1.261573400E1,-1.568288727E0,-2.797682190E0,-1.001417542E-1,3.208828998E0
1.262571200E1,-1.791773987E0,-3.502566376E0,-9.324110413E-1,4.043243201E0
1.263569000E1,-1.981728973E0,-4.250860291E0,-2.456092529E0,5.294284980E0
1.264566900E1,-1.214274902E0,-6.759942627E0,-2.055974579E0,7.169262119E0
1.265564700E1,8.824150085E-1,-1.060888870E1,-1.608105927E0,1.076629836E1
1.266562600E1,3.677402802E0,-1.503787857E1,-7.625891876E0,1.725732628E1
1.267560400E1,6.496041412E0,-2.125085861E1,-1.511781235E1,2.687649151E1
1.268558300E1,7.600145416E0,-2.670222244E1,-9.474397888E0,2.933487871E1
1.269556100E1,6.302493896E0,-2.796125427E1,-1.066681824E0,2.868259019E1
1.270553900E1,1.725312195E0,-2.338556946E1,2.993774414E-3,2.344912728E1
1.271551800E1,-1.488205261E0,-1.843356720E1,-6.816075897E0,1.970964346E1
1.272549600E1,-1.563947754E0,-1.711555801E1,-1.300016602E1,2.154976972E1
1.273547500E1,-2.362387390E0,-1.733724701E1,-1.258552826E1,2.155357348E1
1.274545300E1,-4.057612152E0,-1.646081955E1,-5.797743530E0,1.791749499E1
1.275543200E1,-4.575385437E0,-1.385937927E1,-1.087189178E0,1.463552275E1
1.276541000E1,-4.191134491E0,-1.131736542E1,-3.839964752E0,1.266466334E1
1.277538800E1,-3.057242432E0,-1.064975372E1,-8.014184418E0,1.367447028E1
1.278536700E1,-1.732946320E0,-1.165401535E1,-1.117067047E1,1.623585709E1
1.279534500E1,-7.634124756E-1,-1.289313858E1,-1.186163361E1,1.753608203E1
1.280532400E1,1.673519897E-1,-1.336840027E1,-9.707463226E0,1.652201485E1
1.281530200E1,1.369202728E0,-1.380324600E1,-9.704170074E0,1.692853311E1
1.282528100E1,2.994672546E0,-1.467114120E1,-8.725654907E0,1.733053668E1
1.283525900E1,4.499193878E0,-1.498818192E1,-6.029461670E0,1.677029370E1
1.284523700E1,4.742887115E0,-1.503683075E1,-6.953340454E0,1.723224305E1
1.285521600E1,3.488196259E0,-1.583302505E1,-7.059918823E0,1.768317419E1
1.286519400E1,2.540067902E0,-1.777613434E1,-5.582191772E0,1.880435487E1
1.287517300E1,2.382295990E0,-1.997805542E1,-6.416257324E0,2.111791634E1
1.288515100E1,2.181413727E0,-2.131028503E1,-5.722150726E0,2.217272701E1
1.289513000E1,2.261796570E0,-2.092857880E1,-3.638783112E0,2.136262804E1
1.290510800E1,2.689457245E0,-2.008957352E1,-3.811823273E0,2.062411552E1
1.291508600E1,2.912343750E0,-1.976040802E1,-5.688171387E0,2.076802265E1
1.292506500E1,3.008294220E0,-1.975367203E1,-7.154971161E0,2.122383106E1
1.293504300E1,2.974763947E0,-2.017699173E1,-6.484216003E0,2.140105775E1
1.294502200E1,2.427501984E0,-2.037443115E1,-5.221891022E0,2.117258502E1
1.295500000E1,1.601070557E0,-1.990201355E1,-4.783303070E0,2.053128244E1
1.296497800E1,6.632707214E-1,-1.893487473E1,-4.571792908E0,1.949027191E1
1.297495700E1,-6.122268677E-2,-1.745909363E1,-3.952231293E0,1.790094497E1
1.298493500E1,-4.825964355E-1,-1.569276672E1,-3.592379608E0,1.610593114E1
1.299491400E1,-3.071612549E-1,-1.336256241E1,-3.727099457E0,1.387601141E1
1.300489200E1,6.825805664E-2,-1.056652679E1,-3.378324738E0,1.109365700E1
1.301487100E1,1.442999268E-1,-8.224048004E0,-3.198249207E0,8.825224418E0
1.302484900E1,2.302212524E-1,-6.193071442E0,-2.440225525E0,6.660468176E0
1.303482700E1,4.062551880E-1,-4.260140991E0,-1.592388611E0,4.566130312E0
1.304480600E1,5.864804077E-1,-2.325414276E0,-1.118773499E0,2.646349366E0
1.305478400E1,6.677613831E-1,-2.772235107E-1,-7.253915405E-1,1.024183102E0
1.306476300E1,6.595285034E-1,1.290765839E0,-4.026626587E-1,1.504390745E0
1.307474100E1,3.270698547E-1,2.533631287E0,-2.293231201E-1,2.564927149E0
1.308472000E1,-4.173321533E-1,3.242108002E0,-3.086581421E-1,3.283397672E0
1.309469800E1,-1.200204163E0,3.295397186E0,-4.278103638E-1,3.533150769E0
1.310467600E1,-1.666783905E0,3.005300446E0,-8.988807678E-1,3.552180456E0
1.311465500E1,-1.565744019E0,2.586321716E0,-1.628762970E0,3.434164114E0
1.312463300E1,-9.075627136E-1,1.886227570E0,-2.212698669E0,3.045908719E0
1.313461200E1,-5.987548828E-3,8.129594421E-1,-2.378853149E0,2.513937392E0
1.314459000E1,6.926097107E-1,-3.876937866E-2,-1.818867645E0,1.946661446E0
1.315456800E1,1.050365753E0,-5.107379150E-1,-7.786807251E-1,1.403732562E0
1.316454700E1,1.138682098E0,-7.694000244E-1,4.598437500E-1,1.449147885E0
1.317452500E1,1.107397156E0,-1.004860382E0,1.451232147E0,2.083782041E0
1.318450400E1,9.762698364E-1,-1.045426025E0,2.010918274E0,2.467754176E0
1.319448200E1,6.915618896E-1,-9.527687073E-1,1.994751892E0,2.316260168E0
1.320446100E1,2.722837830E-1,-8.918453979E-1,1.397344208E0,1.679909970E0
1.321443900E1,-2.793191528E-1,-7.101232910E-1,9.583071899E-1,1.225008958E0
1.322441700E1,-9.386979675E-1,-3.821553040E-1,8.978329468E-1,1.353994295E0
1.323439600E1,-1.535207520E0,-1.116677856E-1,9.704319763E-1,1.819634591E0
1.324437400E1,-1.928888855E0,-2.724334717E-2,7.747888184E-1,2.078858371E0
1.325435300E1,-2.081571350E0,-7.469467163E-2,2.776725769E-1,2.101337821E0
1.326433100E1,-1.910028076E0,-1.721420288E-1,-2.381547546E-1,1.932500405E0
1.327431000E1,-1.309925995E0,-4.071533203E-1,-2.899470520E-1,1.402051793E0
1.328428800E1,-6.869215393E-1,-7.455995178E-1,-1.904040527E-1,1.031520017E0
1.329426600E1,-1.817221069E-1,-9.398954773E-1,-8.996292114E-2,9.615195056E-1
1.330424500E1,2.526745605E-1,-1.046174469E0,-3.547622681E-2,1.076839828E0
1.331422300E1,6.376739502E-1,-1.272204437E0,-3.773652649E-1,1.472255664E0
1.332420200E1,8.840615845E-1,-1.660347290E0,-1.553469543E0,2.439587185E0
1.333418063E1,1.028211823E0,-2.617456970E0,-4.060605927E0,4.939313822E0
1.334415862E1,1.120869141E0,-4.086801453E0,-4.943020935E0,6.510894693E0
1.335413763E1,1.382075958E0,-6.044131165E0,-2.479593658E0,6.677577420E0
1.336411563E1,1.918410645E0,-9.176816711E0,-8.521778870E-1,9.413844672E0
1.337409463E1,3.240611115E0,-1.412762146E1,-7.689210205E0,1.640777871E1
1.338407263E1,6.429878998E0,-2.288965073E1,-1.910072983E1,3.049782507E1
1.339405163E1,8.710087280E0,-3.105861328E1,-1.635214554E1,3.616484126E1
1.340402963E1,8.708440704E0,-3.480861511E1,-2.915636902E0,3.599968839E1
1.341400763E1,5.532195740E0,-3.007440994E1,6.989265747E0,3.136758133E1
1.342398663E1,1.531764679E0,-2.284204971E1,-4.939727783E-3,2.289335193E1
1.343396463E1,-7.812254333E-1,-1.820035217E1,-9.678124237E0,2.062835963E1
1.344394363E1,-2.234702911E0,-1.672367294E1,-8.868607635E0,1.906114727E1
1.345392163E1,-2.611619110E0,-1.533695663E1,-3.404969330E0,1.592597279E1
1.346389962E1,-2.636018372E0,-1.213197144E1,-9.385482788E-2,1.241539901E1
1.347387863E1,-2.323318634E0,-8.874295807E0,-5.950126648E-1,9.192658789E0
1.348385663E1,-1.904339905E0,-5.974974976E0,-2.919528809E0,6.917404491E0
1.349383563E1,-1.731299744E0,-2.787952423E0,-6.231691132E0,7.043014403E0
1.350381363E1,-1.313668213E0,-2.112107849E-1,-1.019499939E1,1.028145645E1
1.351379263E1,-1.368454285E0,-5.658233643E-1,-1.169038971E1,1.178380392E1
1.352377063E1,-2.375410309E0,-4.932991791E0,-1.185834045E1,1.306128709E1
1.353374863E1,-3.674259338E0,-1.041833496E1,-1.099538498E1,1.558654471E1
1.354372763E1,-2.647694092E0,-1.805874664E1,-8.938661957E0,2.032309750E1
1.355370563E1,2.407443695E0,-2.858351028E1,-8.692723389E0,2.997292587E1
1.356368463E1,5.597460022E0,-3.290143112E1,-3.772754517E0,3.358674449E1
1.357366263E1,6.146368561E0,-2.646900742E1,-1.455573120E0,2.721221956E1
1.358364063E1,6.569388885E0,-2.036664734E1,-7.025340729E0,2.252360110E1
1.359361963E1,5.645360413E0,-1.715791992E1,-1.235680389E1,2.188503856E1
1.360359763E1,4.730912018E0,-1.596594864E1,-1.125524460E1,2.009909390E1
1.361357663E1,4.516857147E0,-1.536554718E1,-7.835605774E0,1.782971555E1
1.362355463E1,4.908742218E0,-1.593346619E1,-6.704557800E0,1.797003590E1
1.363353363E1,5.052144012E0,-1.808943283E1,-6.273903351E0,1.980185856E1
1.364351163E1,4.803361359E0,-2.094160172E1,-5.895939331E0,2.227970070E1
1.365348963E1,4.102818146E0,-2.368045624E1,-6.192023621E0,2.481810389E1
1.366346863E1,2.500400391E0,-2.489068954E1,-6.204597473E0,2.577392981E1
1.367344663E1,8.696914673E-1,-2.419927734E1,-5.002447357E0,2.472621821E1
1.368342563E1,-3.603007507E-1,-2.191652435E1,-3.563789062E0,2.220730620E1
1.369340363E1,-1.096170502E0,-1.855167160E1,-3.086282043E0,1.883855742E1
1.370338263E1,-1.397493896E0,-1.468625977E1,-3.986959076E0,1.528185387E1
1.371336063E1,-1.348545685E0,-1.100316879E1,-4.510869598E0,1.196813450E1
1.372333863E1,-1.087787933E0,-8.014633484E0,-3.914958801E0,8.985796286E0
1.373331763E1,-9.499246216E-1,-5.338947601E0,-3.104843445E0,6.248741561E0
1.374329563E1,-6.445596313E-1,-3.097059631E0,-2.467019806E0,4.011660778E0
1.375327463E1,1.167572021E-2,-6.209088135E-1,-1.869013367E0,1.969485984E0
1.376325263E1,5.974076843E-1,1.935475159E0,-1.808090057E0,2.715170287E0
1.377323063E1,1.193168793E0,3.691772919E0,-1.298849030E0,4.091435916E0
1.378320963E1,1.562001801E0,4.136198730E0,6.283932495E-1,4.465743795E0
1.379318763E1,1.074315948E0,3.551364899E0,2.122885437E0,4.274691799E0
1.380316662E1,2.785707092E-1,2.980452118E0,2.214045868E0,3.723264102E0
1.381314463E1,-2.953358459E-1,2.723286896E0,1.298100586E0,3.031267047E0
1.382312263E1,-2.140548706E-1,2.223775635E0,5.493576050E-2,2.234729402E0
1.383310163E1,5.028044128E-1,1.512903900E0,-1.360371094E0,2.095781477E0
1.384307963E1,1.359472961E0,1.130449219E0,-3.489393768E0,3.911770832E0
1.385305863E1,1.675465851E0,1.026415558E0,-5.175337830E0,5.535777846E0
1.386303663E1,1.405277710E0,6.996450806E-1,-3.704197083E0,4.023106350E0
1.387301563E1,1.067130890E0,-5.194198608E-2,1.531315613E-1,1.079312550E0
1.388299363E1,5.239105225E-1,-9.463320923E-1,3.787873077E0,3.939290433E0
1.389297163E1,-3.942800903E-1,-1.928739166E0,5.332061920E0,5.683869798E0
1.390295063E1,-1.407972107E0,-2.585124207E0,4.439468079E0,5.326737223E0
1.391292863E1,-2.002984772E0,-2.790946198E0,2.304158478E0,4.136480988E0
1.392290762E1,-2.001637573E0,-2.492915955E0,5.650749207E-1,3.246612480E0
1.393288563E1,-1.517394562E0,-1.770667877E0,-4.203259277E-1,2.369477764E0
1.394286363E1,-8.482859802E-1,-7.557783508E-1,-9.168434143E-1,1.459928720E0
1.395284262E1,-1.660047913E-1,2.860551453E-1,-1.038540344E0,1.089931733E0
1.396282063E1,2.053729248E-1,6.812333679E-1,-1.138981476E0,1.342957833E0
1.397279963E1,1.550775146E-1,5.959107971E-1,-1.185834045E0,1.336174052E0
1.398277762E1,2.649490356E-2,3.037184143E-1,-1.058898010E0,1.101912815E0
1.399275563E1,-3.248245239E-2,-1.191522217E-1,-8.249345398E-1,8.341279018E-1
1.400273463E1,3.008743286E-2,-6.676116943E-1,-6.132746887E-1,9.070371943E-1
1.401271263E1,1.227447510E-1,-1.120420074E0,-4.950205994E-1,1.231037291E0
1.402269163E1,3.370989990E-1,-1.648521881E0,-1.517843628E-1,1.689466963E0
1.403266963E1,5.992039490E-1,-2.075134735E0,9.280700684E-2,2.161907186E0
1.404264862E1,8.369096375E-1,-2.379900970E0,-1.589694214E-1,2.527769303E0
1.405262663E1,1.127006378E0,-2.892584839E0,-6.227050781E-1,3.166220466E0
1.406260463E1,1.551074524E0,-3.668571167E0,3.158432007E-2,3.983119902E0
1.407258362E1,2.096390533E0,-4.739893341E0,4.122427368E-1,5.199171687E0
1.408256163E1,2.890489197E0,-7.017257538E0,-1.350641327E0,7.708505896E0
1.409254063E1,4.317322083E0,-1.104418350E1,-6.588998108E0,1.356569774E1
1.410251862E1,7.358248444E0,-1.861319366E1,-1.877994690E1,2.744596881E1
1.411249663E1,9.054521027E0,-2.788640991E1,-1.462144455E1,3.276313247E1
1.412247563E1,7.192692719E0,-3.548880066E1,1.347198486E-3,3.621035491E1
1.413245362E1,1.915716248E0,-3.484424103E1,3.661685486E0,3.508844599E1
1.414243263E1,-3.377127228E0,-2.673500427E1,-5.807922363E0,2.756623667E1
1.415241063E1,-4.263883209E0,-1.966879852E1,-1.469404358E1,2.491901387E1
1.416238862E1,-1.987417145E0,-1.670990158E1,-1.032777328E1,1.974420266E1
1.417236763E1,-1.383722534E0,-1.404214920E1,3.526666260E-1,1.411456751E1
1.418234563E1,-1.345701599E0,-1.055544983E1,4.889432373E0,1.171046467E1
1.419232462E1,-7.975415039E-1,-6.024671631E0,2.676284637E0,6.640424698E0
1.420230263E1,5.134323120E-1,-1.936223602E0,-3.889661407E0,4.375161762E0
1.421228163E1,1.357227631E0,-1.993105316E0,-1.016581009E1,1.044788162E1
1.422225962E1,8.505313110E-1,-7.303911438E0,-1.382060989E1,1.565502423E1
1.423223763E1,-5.284011841E-1,-1.383797379E1,-1.502635254E1,2.043428484E1
1.424221663E1,-3.288361816E0,-2.037967026E1,-1.321826248E1,2.451258343E1
1.425219462E1,-3.338956604E0,-2.645613419E1,-1.153621033E1,2.905442851E1
1.426217363E1,-7.185058594E-3,-2.808384933E1,-9.810449066E0,2.974806810E1
1.427215163E1,1.474433899E0,-1.858415405E1,-6.034850464E0,1.959500338E1
1.428212962E1,2.110012207E0,-9.766590271E0,-3.750001831E0,1.067243884E1
1.429210863E1,2.392474823E0,-4.964127045E0,-5.701793060E0,7.929497916E0
1.430208663E1,1.718725891E0,-2.411036224E0,-9.065747681E0,9.537027596E0
1.431206562E1,1.341660004E0,-4.079616394E0,-1.213915649E1,1.287642970E1
1.432204363E1,1.461860046E0,-9.983189850E0,-1.088147186E1,1.483939164E1
1.433202108E1,2.002835083E0,-1.706720856E1,-8.431516571E0,1.914135387E1
1.434200008E1,2.699336700E0,-2.527074921E1,-7.896678772E0,2.661305544E1
1.435197808E1,2.950065308E0,-3.058649506E1,-5.867648163E0,3.128363566E1
1.436195708E1,3.312312012E0,-2.980332367E1,-4.869673462E0,3.037965161E1
1.437193508E1,2.823578339E0,-2.402878189E1,-8.095914459E0,2.551271810E1
1.438191408E1,2.192041626E0,-1.831725906E1,-8.299491119E0,2.022890454E1
1.439189208E1,2.582429810E0,-1.612581619E1,-6.892566833E0,1.772620572E1
1.440187008E1,3.025358734E0,-1.592583206E1,-6.540349274E0,1.748030580E1
1.441184908E1,3.132685547E0,-1.616997437E1,-6.344257050E0,1.765025176E1
1.442182708E1,2.923720093E0,-1.618090164E1,-5.913003845E0,1.747378985E1
1.443180608E1,2.364782410E0,-1.567195999E1,-4.855303345E0,1.657638369E1
1.444178408E1,1.783690796E0,-1.411759232E1,-3.504362640E0,1.465498288E1
1.445176208E1,1.204994202E0,-1.162722107E1,-2.642454987E0,1.198444196E1
1.446174108E1,6.029461670E-1,-8.692573700E0,-2.483485565E0,9.060468098E0
1.447171908E1,2.285746765E-1,-5.885161743E0,-2.373314667E0,6.349802960E0
1.448169808E1,1.562750244E-1,-3.383414154E0,-2.023492126E0,3.945431992E0
1.449167608E1,2.995271301E-1,-9.711804199E-1,-9.099577332E-1,1.364159443E0
1.450165408E1,5.595364380E-1,8.940907288E-1,1.496887207E-4,1.054741333E0
1.451163308E1,6.469546509E-1,2.055076447E0,1.136137390E-1,2.157497996E0
1.452161108E1,3.492237854E-1,2.748584290E0,3.558100891E-1,2.793434028E0
1.453159008E1,-2.550695801E-1,3.118016052E0,8.074209595E-1,3.230946177E0
1.454156808E1,-1.007105713E0,2.911146240E0,1.096769257E0,3.269852772E0
1.455154608E1,-1.618883514E0,2.371668091E0,1.145418091E0,3.091532948E0
1.456152508E1,-1.719923401E0,1.940714264E0,1.309327240E0,2.904969222E0
1.457150308E1,-1.441502380E0,1.551822968E0,9.782157898E-1,2.333021596E0
1.458148208E1,-1.034648438E0,8.840615845E-1,3.158432007E-2,1.361271407E0
1.459146008E1,-5.044509888E-1,1.179547119E-1,-1.064735870E0,1.184080482E0
1.460143808E1,1.797761536E-1,-4.161346436E-1,-2.413131866E0,2.455339673E0
1.461141708E1,1.059197388E0,-5.595364380E-1,-3.445235596E0,3.647551020E0
1.462139508E1,1.817670135E0,-3.815565491E-1,-2.540367279E0,3.146899432E0
1.463137408E1,2.244133301E0,-1.333726501E-1,-5.939648438E-1,2.325234778E0
1.464135208E1,2.300116882E0,-2.338137817E-1,8.818162537E-1,2.474430533E0
1.465133108E1,1.963017883E0,-4.986131287E-1,1.450483704E0,2.491175874E0
1.466130908E1,1.453178101E0,-6.396199036E-1,8.909472656E-1,1.820611777E0
1.467128708E1,8.099656677E-1,-6.433621216E-1,2.157014465E-1,1.056639161E0
1.468126608E1,9.879455566E-2,-5.959107971E-1,-1.166075134E-1,6.151970047E-1
1.469124408E1,-6.403683472E-1,-4.810995483E-1,-1.616638184E-1,8.171068386E-1
1.470122308E1,-1.294358368E0,-3.799099731E-1,6.795867920E-2,1.350671520E0
1.471120108E1,-1.810934143E0,-2.436932373E-1,1.754351807E-1,1.835659654E0
1.472117908E1,-2.122286682E0,-4.317022705E-1,-6.032455444E-2,2.166588716E0
1.473115808E1,-2.153122559E0,-7.818241882E-1,-4.110452271E-1,2.327261049E0
1.474113608E1,-1.942660217E0,-1.225950623E0,-6.515950012E-1,2.387772957E0
1.475111508E1,-1.542691956E0,-1.530866547E0,-8.135581970E-1,2.320630904E0
1.476109308E1,-1.014440460E0,-1.697021027E0,-7.334747314E-1,2.108780452E0
1.477107108E1,-5.980064392E-1,-1.791025543E0,-7.463479614E-1,2.030374221E0
1.478105008E1,-3.561094666E-1,-2.148631897E0,-1.188079376E0,2.480920310E0
1.479102808E1,-9.205856323E-2,-2.771636353E0,-2.336341553E0,3.626145984E0
1.480100708E1,7.671546936E-1,-4.117038574E0,-3.305725708E0,5.335387090E0
1.481098508E1,2.283800812E0,-6.738537140E0,-2.043700104E0,7.402725110E0
1.482096308E1,3.914210358E0,-9.636361084E0,-3.139720917E0,1.086454532E1
1.483094208E1,6.816075897E0,-1.450648361E1,-1.540117310E1,2.222820483E1
1.484092008E1,1.136526581E1,-2.321372681E1,-2.457514572E1,3.566488702E1
1.485089908E1,1.117261642E1,-3.105996048E1,-9.888736267E0,3.445773654E1
1.486087708E1,6.144572296E0,-3.398143524E1,3.813769226E0,3.474246027E1
1.487085508E1,1.496887207E-1,-2.876822617E1,4.885989532E0,2.918057808E1
1.488083408E1,-2.366578674E0,-2.175800400E1,-4.242627411E0,2.229375069E1
1.489081208E1,-2.329605560E0,-1.848056946E1,-1.072280182E1,2.149271943E1
1.490079108E1,-2.453847198E0,-1.700643494E1,-8.140821075E0,1.901349950E1
1.491076908E1,-1.953737183E0,-1.477128296E1,-1.670376434E0,1.499326671E1
1.492074708E1,-1.405128021E0,-1.107172623E1,1.652264099E0,1.128217546E1
1.493072608E1,-7.276368713E-1,-6.701264648E0,7.069798279E-1,6.777626707E0
1.494070408E1,3.540138245E-1,-2.447859650E0,-2.634820862E0,3.613810126E0
1.495068308E1,1.484912109E0,1.011746063E0,-7.386389923E0,7.601799140E0
1.496066108E1,2.316432953E0,1.209484863E0,-1.262474670E1,1.289235993E1
1.497064008E1,2.017055511E0,-4.821174316E0,-1.668026321E1,1.747980022E1
1.498061808E1,9.849517822E-2,-1.358110794E1,-1.683384384E1,2.162948203E1
1.499059608E1,-2.510878601E0,-2.434716980E1,-1.402733002E1,2.821090527E1
1.500057508E1,-1.559906158E0,-3.579671036E1,-1.078507233E1,3.741865263E1
1.501055308E1,1.110091553E0,-3.680845642E1,-4.164789276E0,3.705995463E1
1.502053208E1,3.534001007E0,-3.113809799E1,-1.934577026E0,3.139765752E1
1.503051008E1,5.011578369E0,-2.222248810E1,-8.113727417E0,2.418237928E1
1.504048808E1,5.986800385E0,-1.405936340E1,-9.672735443E0,1.808505707E1
1.505046708E1,6.532116394E0,-9.302405548E0,-7.046746216E0,1.337385232E1
1.506044508E1,6.990463257E0,-6.125262451E0,-7.490722961E0,1.193718338E1
1.507042408E1,7.329508209E0,-5.683081970E0,-8.470285950E0,1.256044805E1
1.508040208E1,7.393275604E0,-9.364526367E0,-7.264543304E0,1.396883917E1
1.509038008E1,6.531367950E0,-1.504596176E1,-5.871839447E0,1.742177463E1
1.510035908E1,5.316344604E0,-2.094908615E1,-4.914280701E0,2.216478931E1
1.511033708E1,3.226091309E0,-2.642799271E1,-3.962559814E0,2.691743569E1
1.512031608E1,4.522096252E-1,-2.877586029E1,-3.340902557E0,2.897268125E1
1.513029408E1,-1.630259857E0,-2.620031616E1,-3.741918640E0,2.651633967E1
1.514027208E1,-2.197280731E0,-2.093845825E1,-4.386927338E0,2.150563201E1
1.515025108E1,-1.983674927E0,-1.588496704E1,-4.741839294E0,1.669587326E1
1.516022908E1,-1.531465302E0,-1.199231186E1,-4.356839905E0,1.285079700E1
1.517020808E1,-1.049168243E0,-9.239386597E0,-4.008813629E0,1.012608539E1
1.518018608E1,-3.357518005E-1,-7.156767426E0,-3.687731323E0,8.058002952E0
1.519016408E1,4.261637878E-1,-5.413642273E0,-3.268004150E0,6.337901022E0
1.520014308E1,1.134939880E0,-3.516337738E0,-2.722388763E0,4.589566450E0
1.521012108E1,1.911974030E0,-1.764830017E0,-2.727178802E0,3.769320085E0
1.522010008E1,2.537223816E0,1.215472412E-1,-2.430944824E0,3.515931052E0
1.523007808E1,2.513722687E0,2.351160736E0,-7.985893250E-1,3.533341685E0
1.524005608E1,1.988614655E0,3.843407593E0,1.568139038E0,4.602763323E0
1.525003508E1,1.217867432E0,4.135450287E0,3.420686646E0,5.503294221E0
1.526001308E1,2.215393066E-1,3.452121277E0,3.815565491E0,5.150219509E0
1.526999208E1,-7.526348877E-1,2.534379730E0,3.318000183E0,4.242483365E0
1.527997008E1,-1.541644135E0,2.011966095E0,2.500849457E0,3.560747423E0
1.528994808E1,-1.962568817E0,1.298399963E0,1.348096619E0,2.711988813E0
1.529992708E1,-1.824256439E0,2.290237427E-1,-6.691085815E-2,1.839793601E0
1.530990508E1,-1.328038330E0,-7.759863281E-1,-1.268162842E0,1.993508862E0
1.531988408E1,-6.842271423E-1,-1.270258484E0,-2.345322876E0,2.753590890E0
1.532986188E1,-1.139131165E-1,-1.247356110E0,-3.394491119E0,3.618209975E0
1.533983987E1,3.802093506E-1,-1.146615601E0,-3.256478119E0,3.473317755E0
1.534981888E1,7.394622803E-1,-1.066532135E0,-2.103575592E0,2.471704984E0
1.535979688E1,8.396040344E-1,-9.404942322E-1,-5.089416504E-1,1.359590357E0
1.536977588E1,6.159690857E-1,-6.676116943E-1,8.705895996E-1,1.258192966E0
1.537975388E1,1.782792664E-1,-3.722758484E-1,1.254840546E0,1.320983573E0
1.538973188E1,-1.939965820E-1,3.921844482E-2,1.393751678E0,1.407734528E0
1.539971088E1,-3.608995056E-1,2.978805542E-1,8.659492493E-1,9.843014681E-1
1.540968888E1,-2.856060791E-1,2.981799316E-1,-2.909948730E-1,5.051337647E-1
1.541966788E1,2.874023438E-2,2.110610962E-1,-1.046024780E0,1.067492683E0
1.542964588E1,8.053253174E-2,1.583706665E-1,-1.707798615E0,1.717015686E0
1.543962388E1,-3.179388428E-1,-4.056564331E-2,-2.101030884E0,2.125337962E0
1.544960288E1,-1.059197388E0,-2.320175171E-1,-2.289938049E0,2.533682597E0
1.545958088E1,-1.747765503E0,-5.451663208E-1,-2.262095947E0,2.910149248E0
1.546955988E1,-1.903142395E0,-7.665559387E-1,-1.495540009E0,2.538936569E0
1.547953788E1,-1.645228729E0,-1.253792725E0,-1.021475830E0,2.306986484E0
1.548951588E1,-1.114432526E0,-2.239942017E0,-1.319506073E0,2.828497193E0
1.549949488E1,-5.971083069E-1,-3.278632050E0,-2.501597900E0,4.167008340E0
1.550947288E1,2.540217590E-1,-5.036726074E0,-3.038231964E0,5.887613274E0
1.551945188E1,1.838327179E0,-7.889344025E0,-2.578687592E0,8.501224950E0
1.552942988E1,4.364024963E0,-1.176673096E1,-4.452490997E0,1.331635639E1
1.553940788E1,8.491841125E0,-1.779260010E1,-9.341025238E0,2.181611185E1
1.554938688E1,1.251966522E1,-2.652828415E1,-9.885293427E0,3.095498188E1
1.555936488E1,1.294927185E1,-3.426838852E1,-6.319857788E0,3.717454365E1
1.556934388E1,5.196443939E0,-3.079291580E1,-2.426454163E-1,3.122924223E1
1.557932188E1,-2.373614044E0,-1.824241470E1,3.967649231E0,1.881919175E1
1.558929988E1,-4.528233490E0,-1.019095779E1,2.496059418E0,1.142763457E1
1.559927888E1,-4.058809662E0,-7.842790833E0,-9.135502625E-1,8.877943343E0
1.560925688E1,-2.051483917E0,-9.709109802E0,-3.629053345E0,1.056623999E1
1.561923588E1,-7.586224365E-1,-1.336929840E1,-5.865253143E0,1.461898910E1
1.562921388E1,-2.483335876E-1,-1.687904984E1,-1.016685791E1,1.970606487E1
1.563919188E1,-1.178050232E-1,-2.141057648E1,-1.868803802E1,2.841952548E1
1.564917088E1,-7.192543030E-1,-2.695399887E1,-1.958991257E1,3.332866718E1
1.565914888E1,-1.273102570E0,-2.874652130E1,-7.836803284E0,2.982278932E1
1.566912788E1,-5.827381897E-1,-2.339335327E1,2.658471680E-1,2.340212033E1
1.567910588E1,3.778143311E-1,-1.542736862E1,1.643582153E-1,1.543286946E1
1.568908388E1,1.655257874E0,-1.100915634E1,-2.098486176E0,1.132894727E1
1.569906288E1,2.675536194E0,-9.031468964E0,-3.167712708E0,9.937823170E0
1.570904088E1,3.385659485E0,-8.732540588E0,-3.055895233E0,9.851824752E0
1.571901988E1,4.105362854E0,-7.958200836E0,-3.629502411E0,9.662310928E0
1.572899788E1,5.090164948E0,-6.717431030E0,-4.589905243E0,9.596920807E0
1.573897588E1,6.637946320E0,-7.643106079E0,-5.232668610E0,1.139562296E1
1.574895488E1,7.658224640E0,-1.019664597E1,-5.111121368E0,1.373839711E1
1.575893288E1,6.332281952E0,-1.069271439E1,-5.680088196E0,1.366365023E1
1.576891188E1,3.955674133E0,-1.079315552E1,-5.332361298E0,1.267176550E1
1.577888988E1,1.825004883E0,-1.161045593E1,-2.869233398E0,1.209817466E1
1.578886788E1,-3.514691162E-1,-1.075588303E1,-1.187779999E0,1.082697426E1
1.579884688E1,-1.447938995E0,-8.292904816E0,-2.239343262E0,8.711111058E0
1.580882488E1,-2.092648315E-1,-9.675429840E0,-3.704496460E0,1.036248177E1
1.581880388E1,1.007405090E-1,-1.108923981E1,-3.679648132E0,1.168422862E1
1.582878188E1,-2.875520325E-1,-1.264705032E1,-2.826572113E0,1.296225590E1
1.583875988E1,-3.703298950E-1,-1.164398621E1,-2.547252960E0,1.192510196E1
1.584873888E1,7.768844604E-2,-9.342522125E0,-2.499651947E0,9.671453614E0
1.585871688E1,1.824256439E0,-7.853119354E0,-2.836900635E0,8.546777191E0
1.586869588E1,2.616558838E0,-6.251150665E0,-2.789748688E0,7.328435204E0
1.587867388E1,3.497626648E0,-5.612428894E0,-2.021396484E0,6.915113449E0
1.588865188E1,4.642445984E0,-5.621110840E0,-1.835932159E0,7.517967723E0
1.589863088E1,4.643344116E0,-4.691244507E0,-1.826352081E0,6.848648153E0
1.590860888E1,4.183200989E0,-5.052443390E0,-2.370470581E0,6.974631567E0
1.591858788E1,3.094215546E0,-7.737709351E0,-3.081641693E0,8.884977848E0
1.592856588E1,1.423539734E0,-1.022179367E1,-3.812122650E0,1.100199120E1
1.593854388E1,1.972897339E-1,-1.183124680E1,-4.246070251E0,1.257165210E1
1.594852288E1,-1.139879608E0,-1.320029984E1,-5.144352264E0,1.421307854E1
1.595850088E1,-2.342329102E0,-1.359472961E1,-5.126688995E0,1.471686512E1
1.596847988E1,-2.984194336E0,-1.260648468E1,-3.824696503E0,1.350767097E1
1.597845788E1,-2.129771118E0,-9.697733459E0,2.652484131E-1,9.932387225E0
1.598843588E1,-1.111289062E0,-6.210285645E0,4.413272552E0,7.699323723E0
1.599841488E1,-1.674717407E0,-4.482578430E0,3.864813080E0,6.151013568E0
1.600839288E1,-2.368674316E0,-4.880301361E0,1.273551636E0,5.572243100E0
1.601837188E1,-2.567760315E0,-6.209836578E0,-8.893006897E-1,6.778371418E0
1.602834988E1,-2.017354889E0,-6.917115784E0,-1.971999207E0,7.470273916E0
1.603832788E1,-7.920030212E-1,-6.669530640E0,-3.941154327E0,7.787336205E0
1.604830688E1,-6.286926270E-3,-7.060517578E0,-6.271508331E0,9.443662676E0
1.605828488E1,-1.518292694E0,-5.087620239E0,-2.035766602E0,5.686249912E0
1.606826388E1,-6.406677246E-2,-5.019811249E0,-2.553839264E0,5.632468776E0
1.607824188E1,6.377338257E0,-1.706855576E1,-5.314248962E0,1.898018127E1
1.608821988E1,9.762548676E0,-2.047996170E1,-3.918850708E0,2.302376118E1
1.609819888E1,1.043435165E1,-1.337184311E1,-2.125430145E0,1.709383912E1
1.610817688E1,9.830507355E0,-1.022044647E1,-3.811074829E0,1.468402848E1
1.611815588E1,8.394393768E0,-9.625284119E0,-4.609813843E0,1.357800887E1
1.612813388E1,9.963580627E0,-7.680378571E0,1.083746338E-1,1.258065574E1
1.613811188E1,6.656807098E0,-1.038525375E1,-8.581654358E-1,1.236539624E1
1.614809088E1,6.777156830E0,-9.786199493E0,-2.008223877E0,1.207197243E1
1.615806888E1,8.348738708E0,-9.504784698E0,-3.928281097E0,1.324665099E1
1.616804788E1,7.344327393E0,-1.024080414E1,-3.192561035E0,1.300021770E1
1.617802588E1,4.382436676E0,-1.009635452E1,-1.124611359E0,1.106376412E1
1.618800388E1,2.057022400E0,-1.008138565E1,-5.089416504E-2,1.028923068E1
1.619798288E1,2.064656525E0,-8.222401428E0,-5.659730530E-1,8.496529722E0
1.620796088E1,1.719174957E0,-8.946146393E0,1.849553833E0,9.295695089E0
1.621793988E1,2.321672058E-1,-1.101948486E1,5.061724091E0,1.212864374E1
1.622791788E1,-1.996548157E0,-1.085617447E1,4.957840118E0,1.210053335E1
1.623789588E1,-4.885390778E0,-9.688452759E0,1.334924011E0,1.093229994E1
1.624787488E1,-4.475842438E0,-9.506431274E0,-2.388433228E0,1.077543569E1
1.625785288E1,-2.426603851E0,-9.615704041E0,-2.840193787E0,1.031585533E1
1.626783188E1,-2.158511353E0,-1.004740631E1,-1.268162842E0,1.035460196E1
1.627780988E1,-2.686014404E0,-1.086545517E1,-1.845811615E0,1.134371235E1
1.628778788E1,-2.386936340E0,-1.091021210E1,-2.803070984E0,1.151466022E1
1.629776688E1,-1.331331482E0,-1.042087967E1,-2.407144318E0,1.077782540E1
1.630774488E1,-9.151968384E-1,-9.656718750E0,-1.714684296E0,9.850377886E0
1.631772388E1,1.507215729E0,-4.594695282E0,2.436932373E-1,4.841725971E0
1.632770158E1,-1.923500061E-1,-4.077820129E0,1.381028137E0,4.309623446E0
1.633767958E1,-1.999841309E0,-6.156697083E0,1.951491852E0,6.761109722E0
1.634765858E1,-1.225052490E0,-7.289391632E0,-7.304809570E-1,7.427623200E0
1.635763658E1,-1.428479462E0,-9.088051300E0,-1.005758514E0,9.254446509E0
1.636761458E1,-2.275418243E0,-1.116543137E1,-5.031037903E-1,1.140602907E1
1.637759358E1,-1.749861145E0,-1.144624741E1,-2.167492676E0,1.178034882E1
1.638757158E1,-3.652404785E-1,-1.113190109E1,-1.609752502E0,1.125361834E1
1.639755058E1,-1.790726166E0,-1.360520782E1,-5.427713013E-1,1.373328005E1
1.640752858E1,-3.310815125E0,-1.571432190E1,-1.517843628E-1,1.606002640E1
1.641750658E1,-3.495980072E0,-1.679522415E1,3.573069763E-1,1.715893643E1
